ACCELEROMETER X (m/sì),ACCELEROMETER Y (m/sì),ACCELEROMETER Z (m/sì),GRAVITY X (m/sì),GRAVITY Y (m/sì),GRAVITY Z (m/sì),LINEAR ACCELERATION X (m/sì),LINEAR ACCELERATION Y (m/sì),LINEAR ACCELERATION Z (m/sì),GYROSCOPE X (rad/s),GYROSCOPE Y (rad/s),GYROSCOPE Z (rad/s),LIGHT (lux),MAGNETIC FIELD X (?T),MAGNETIC FIELD Y (?T),MAGNETIC FIELD Z (?T),ORIENTATION Z (azimuth ›),ORIENTATION X (pitch ›),ORIENTATION Y (roll ›),PROXIMITY (i),ATMOSPHERIC PRESSURE (hPa),SOUND LEVEL (dB),LOCATION Latitude : ,LOCATION Longitude : ,LOCATION Altitude ( m),LOCATION Altitude-google ( m),LOCATION Altitude-atmospheric pressure ( m),LOCATION Speed ( Kmh),LOCATION Accuracy ( m),LOCATION ORIENTATION (›),Satellites in range,Time since start in ms ,YYYY-MO-DD HH-MI-SS_SSS
-1.437,3.5853,5.2379,-1.29,5.44,8.06,0.89,-1.25,-1.96,0.3846,-0.3846,-0.0522,258,-21.44,-60.81,-54.25,127.36,-33.48,11.71,2,1014.29,47.357,54.97691,-1.61501,338.71,NaN,,4.79,54.83871,214.8,13 / 22,26,2016-02-03 15:28:42:707
0.0479,4.9625,7.7599,-1.72,6.14,7.45,0.92,0.39,-1.49,-2.0357,-1.698,0.2876,212,-23.25,-66.62,-53.87,123.11,-38.77,13,2,1014.28,46.112,54.97691,-1.61501,338.71,NaN,,4.79,54.83871,214.8,13 / 22,525,2016-02-03 15:28:43:206
-1.1424,4.5697,6.7947,-0.1,5.44,8.16,-0.68,-1.35,4.28,0.2493,1.3891,0.2216,291,-25.81,-69.56,-54.25,137.74,-34.71,-2.28,2,1014.26,36.565,54.976913,-1.615084,335.48,NaN,,4.52,51.612904,218.7,13 / 22,1026,2016-02-03 15:28:43:707
-3.8344,1.9903,10.653,-1.61,3.58,8.99,-2.54,0.67,5.06,0.7968,0.1097,0.8011,328,-33.87,-67,-60.94,127.19,-27.64,12.29,2,1014.25,38.315,54.976913,-1.615084,335.48,NaN,,4.52,51.612904,218.7,13 / 22,1524,2016-02-03 15:28:44:205
-0.8957,6.1887,8.4353,-2.53,5.12,7.97,1.07,0.51,2.88,0.0032,-1.2421,-0.2365,404,-37.12,-65.19,-56.19,126.78,-27.32,13.75,2,1014.25,40.482,54.976913,-1.615139,358.06,NaN,,4.09,64.51613,209.3,13 / 22,2025,2016-02-03 15:28:44:706
1.6262,6.8522,4.7733,-1.48,7.32,6.35,1.22,-0.49,1.4,2.0368,-1.2719,-0.5486,216,-32,-70.31,-43.69,125.59,-41.14,15.96,2,1014.28,38.042,54.976913,-1.615139,358.06,NaN,,4.09,64.51613,209.3,13 / 22,2525,2016-02-03 15:28:45:206
-4.8523,9.8292,2.1723,-3.01,9.02,2.38,-2.87,-0.37,0.72,1.714,-3.2214,0.0703,215,-14.44,-67.37,-31.5,135.4,-50.21,33.77,2,1014.25,43.196,54.97691,-1.615187,322.58,NaN,,3.31,12.903226,215.6,13 / 22,3025,2016-02-03 15:28:45:706
-3.4369,12.9595,5.1277,2.45,9.09,2.74,0.77,-5.08,-1.71,-0.3526,1.3614,-2.4096,538,-24.69,-71.06,-51.56,327.1,-67.98,-41.8,2,1014.26,47.919,54.97691,-1.615187,322.58,NaN,,3.31,12.903226,215.6,13 / 22,3525,2016-02-03 15:28:46:206
-3.8177,6.457,-0.2419,-0.01,9.67,1.65,-3.12,-2.38,-1.32,-0.2471,-0.4186,0.7169,149,-25.81,-76.87,-32.31,134.74,-63.18,59.72,2,1014.3,50.582,54.976917,-1.615211,306.45,NaN,,4.17,9.677419,222.1,13 / 22,4025,2016-02-03 15:28:46:706
-8.9214,8.3419,0.0216,-2.91,9.2,-1.76,-4.26,-2.44,2.54,0.2067,1.0855,-0.1225,90,-14.81,-69.19,-26.81,41.25,-80.86,5.89,2,1014.29,43.494,54.976917,-1.615211,306.45,NaN,,4.17,9.677419,222.1,13 / 22,4525,2016-02-03 15:28:47:206
2.007,10.1908,2.3016,1.44,9.61,-1.32,-0.55,0.44,8.74,0.8916,0.2919,-0.2738,0,-30.19,-73.62,-25.62,170.51,-84.77,121.73,0,1014.33,49.503,54.976913,-1.615225,309.68,NaN,,3.79,9.677419,216.6,13 / 22,5025,2016-02-03 15:28:47:706
-0.4742,8.1694,0.0982,0.53,9.78,-0.53,4.25,3.9,1.65,1.208,2.9604,0.5209,8,-3.5,6.25,13.75,105.94,-82.53,-58.8,0,1014.34,51.03,54.976913,-1.615225,309.68,NaN,,3.79,9.677419,216.6,13 / 22,5525,2016-02-03 15:28:48:206
-0.7017,10.1764,-6.6342,1.4,8.73,-4.23,-0.09,4.82,5.47,-1.4882,0.2716,0.0831,0,-4.62,5.88,25.13,8.66,-67.12,-160.24,0,1014.34,46.099,54.976894,-1.615224,316.13,NaN,,5.04,9.677419,212.5,13 / 22,6025,2016-02-03 15:28:48:706
0.9269,11.6302,-2.3184,1.19,9.72,-0.49,5.16,5.24,0.71,1.1761,1.2794,0.1726,0,-4.25,-1.81,13.31,85,-78.88,-79.64,0,1014.33,47.132,54.976894,-1.615224,316.13,NaN,,5.04,9.677419,212.5,13 / 22,6525,2016-02-03 15:28:49:206
2.1172,11.8266,3.5614,1.26,8.58,-4.59,-1.69,4.46,5.04,-1.2986,-0.0288,0.0469,0,-6.06,6.63,26.25,5.99,-65.31,-160.9,0,1014.37,45.982,54.97687,-1.615224,312.9,NaN,,5.41,9.677419,204,13 / 22,7025,2016-02-03 15:28:49:706
1.3676,13.6995,5.7001,2.1,9.58,0.03,-6.17,6.44,-0.19,0.9438,-0.6924,0.0373,0,-8.62,1.88,4.69,29.27,-77.63,-89.18,0,1014.34,44.104,54.97687,-1.615224,312.9,NaN,,5.41,9.677419,204,13 / 22,7524,2016-02-03 15:28:50:205
6.0187,11.4626,-1.3197,1.86,8.28,-4.92,2.83,5.18,4.56,-1.3177,-1.0472,-0.1779,0,-3.87,10.25,26.25,13.63,-59.84,-156.82,0,1014.39,51.218,54.97685,-1.615235,312.9,NaN,,5.58,9.677419,210.4,13 / 22,8024,2016-02-03 15:28:50:705
-4.1506,16.9352,-2.6106,2.83,9.38,-0.29,-3.83,7.16,0.34,-0.7297,-0.5326,0.2834,29,-6.06,2.56,5.44,17.34,-72.2,-130.81,0,1014.37,48.468,54.97685,-1.615235,312.9,NaN,,5.58,9.677419,210.4,13 / 22,8525,2016-02-03 15:28:51:206
-3.8847,5.8558,8.2508,-1.67,8.35,4.86,-5.61,-3.52,-2,-1.1931,0.6402,3.526,95,3.81,8.81,-12.56,1.55,-58.39,18.96,2,1014.33,45.571,54.976833,-1.61525,312.9,NaN,,6.09,9.677419,210.5,13 / 22,9025,2016-02-03 15:28:51:706
-2.201,4.5889,6.948,-3.28,6.49,6.58,-0.77,-0.3,-1.34,-1.8418,-1.7556,-0.0746,117,5.25,11.38,-21.56,27.03,-47.3,42.44,0,1014.31,44.021,54.976833,-1.61525,312.9,NaN,,6.09,9.677419,210.5,13 / 22,9524,2016-02-03 15:28:52:205
-0.879,4.8763,6.5695,-1.91,5.85,7.63,1.33,-2.96,-3.48,0.6093,-0.1704,0.0437,536,0.5,9.56,-25.06,12.7,-36.64,14.05,2,1014.29,45.649,54.976833,-1.61525,312.9,NaN,,6.09,9.677419,210.5,13 / 22,10024,2016-02-03 15:28:52:705
-0.7472,4.6918,5.1708,-1.81,6.2,7.38,-1.29,-1.16,-2.75,0.1886,-0.5529,0.2546,541,0.88,8.81,-23.12,6.07,-31.55,7.7,2,1014.29,44.514,54.97683,-1.615238,312.9,NaN,,3.21,9.677419,209.8,13 / 22,10524,2016-02-03 15:28:53:205
-0.6251,4.2679,3.7434,-0.8,6.18,7.57,-0.87,-2.18,-0.45,-0.1545,0.066,-0.3846,519,1.25,9.88,-24.69,3.97,-39.07,6.03,2,1014.3,41.49,54.976826,-1.615255,309.68,NaN,,3.06,9.677419,210.1,13 / 22,11024,2016-02-03 15:28:53:705
-0.9221,5.3529,8.0425,-1.35,6.13,7.54,-1.45,-0.82,0,0.2887,0.4708,0.3377,507,1.63,7.69,-22.75,3.22,-40.2,7.9,2,1014.31,41.061,54.976826,-1.615255,309.68,NaN,,3.06,9.677419,210.1,13 / 22,11525,2016-02-03 15:28:54:206
0.752,2.031,8.6197,-1.26,5.96,7.68,-2.04,0.64,-0.67,-0.6253,0.7915,0.4708,458,1.25,10.63,-25.44,7.32,-37.45,9.32,2,1014.29,41.456,54.976807,-1.615268,316.13,NaN,,5.5,12.903226,210.6,13 / 22,12025,2016-02-03 15:28:54:706
-1.2502,5.1469,5.1301,-1.39,5.49,8.01,-2.78,-1.03,1.7,-0.0799,-0.1907,0.5198,544,1.56,12.06,-26.62,7.59,-36.54,12.61,2,1014.26,42.871,54.976807,-1.615268,316.13,NaN,,5.5,12.903226,210.6,13 / 22,12525,2016-02-03 15:28:55:206
-2.6178,5.9109,13.9606,-1.03,6.65,7.13,-0.89,1.21,2.29,-0.5007,0.4687,-0.8213,497,3.06,5.88,-19.56,359.65,-42.71,8.22,2,1014.26,46.396,54.97679,-1.615287,322.58,NaN,,5.38,12.903226,207.5,13 / 22,13024,2016-02-03 15:28:55:705
-6.536,5.408,16.1352,-2.08,4.99,8.18,-1.99,0.68,4.45,-0.7691,-0.0096,-0.7393,537,5.63,16.88,-28.19,0.22,-35.68,16.48,2,1014.25,43.521,54.97679,-1.615287,322.58,NaN,,5.38,12.903226,207.5,13 / 22,13524,2016-02-03 15:28:56:205
-0.7975,5.7576,11.6063,-1.19,5.23,8.21,-2.54,1.48,2.02,0.1342,-0.18,0.245,540,3.06,11,-29,10.39,-29.64,20.75,2,1014.29,43.228,54.976776,-1.615302,316.13,NaN,,4.93,12.903226,210,Nov-20,14025,2016-02-03 15:28:56:706
-1.7771,10.2746,7.3791,0.4,7.97,5.7,-0.64,2.69,-5.92,-2.0048,0.5934,1.2314,562,0.13,-1.06,-16.12,354.76,-26.13,-2.02,2,1014.29,40.136,54.976776,-1.615302,316.13,NaN,,4.93,12.903226,210,Nov-20,14525,2016-02-03 15:28:57:206
5.2307,9.3933,3.3674,3.55,8.1,4.23,0.65,-1.37,-2.03,0.0724,1.3891,-2.5396,125,-16.69,-4.37,-3.19,42.12,-62,-45.79,2,1014.29,39.555,54.976765,-1.615323,322.58,NaN,,5.27,12.903226,219.6,Oct-21,15025,2016-02-03 15:28:57:706
-4.9218,7.4844,-1.5927,-3.26,9.22,0.67,0.53,-4.19,-0.85,0.5997,-1.404,-0.8714,84,16.94,9.19,0.75,346.64,-70.15,78.39,2,1014.28,38.794,54.976765,-1.615323,322.58,NaN,,5.27,12.903226,219.6,Oct-21,15524,2016-02-03 15:28:58:205
-7.288,3.3434,2.2705,0.33,9.8,0.03,-2.97,-4.44,-0.93,-1.4711,-1.3976,-1.8674,96,1.56,-2.19,5.06,292.01,-80.35,93.84,2,1014.28,38.925,54.976753,-1.615348,322.58,NaN,,5.18,12.903226,224.5,Dec-20,16024,2016-02-03 15:28:58:705
-1.2119,7.4892,-3.7937,-4.21,8.84,-0.45,0.59,-5.8,-2.19,1.2666,0.9822,0.6242,11,14.38,9.56,0.75,8.57,-75.26,103.92,0,1014.28,39.921,54.976753,-1.615348,322.58,NaN,,5.18,12.903226,224.5,Dec-20,16525,2016-02-03 15:28:59:206
-0.3832,1.5376,1.3819,-0.75,9.65,-1.56,2.73,-2.85,8.95,-0.9694,0.5028,-0.8533,6,3.81,1.5,8.94,349.58,-79.83,154.32,0,1014.3,39.87,54.976746,-1.615374,316.13,NaN,,4.92,12.903226,227.3,Oct-20,17025,2016-02-03 15:28:59:706
-3.0057,4.6104,-4.3302,-2.17,9.52,-0.9,3.2,6.61,0.87,-0.3622,1.6085,-0.2248,9,7.44,9.5,18.38,307.4,-83.32,82.44,0,1014.3,39.924,54.976746,-1.615374,316.13,NaN,,4.92,12.903226,227.3,Oct-20,17525,2016-02-03 15:29:00:206
1.7579,13.1103,-0.8478,-1.56,8.45,-4.72,2.74,3.02,2.64,-0.6892,0.6136,0.6328,0,4.13,15.75,29.69,347.81,-65.2,158.61,0,1014.33,40.618,54.976734,-1.615396,316.13,NaN,,6.19,12.903226,213,Nov-22,18025,2016-02-03 15:29:00:706
4.4212,16.1544,-0.4886,-1.8,9.62,-0.64,4.05,6.22,0.87,0.5475,0.065,0.3111,0,10,11,9.38,306.6,-85.1,75.47,0,1014.3,41.022,54.976734,-1.615396,316.13,NaN,,6.19,12.903226,213,Nov-22,18525,2016-02-03 15:29:01:206
1.1544,14.1474,-0.9317,-0.82,8.71,-4.44,-2.05,4.04,7.45,-0.2727,-0.1119,0.2035,0,7.81,12.81,24.63,8.99,-62.36,172.3,0,1014.31,39.583,54.97672,-1.615415,319.35,NaN,,7.03,12.903226,197.2,Sep-19,19025,2016-02-03 15:29:01:706
0.0527,12.1308,5.3648,-1.06,9.75,-0.1,-7.3,2.85,1.08,0.6594,0.1023,-0.7585,0,12.19,10.25,8.19,355.43,-81.49,108.06,0,1014.3,38.228,54.97672,-1.615415,319.35,NaN,,7.03,12.903226,197.2,Sep-19,19525,2016-02-03 15:29:02:206
1.5232,13.8456,-3.9973,-1.27,8.77,-4.21,-2.52,1.4,5.08,0.5806,-0.8884,-0.2237,0,8.19,19.75,27.75,359.3,-63.37,163.21,0,1014.34,38.086,54.976704,-1.615428,319.35,NaN,,5.81,12.903226,197.2,Nov-22,20025,2016-02-03 15:29:02:706
-0.3257,11.3955,5.0128,-1.02,9.74,0.53,-6.32,5.94,2.07,0.3036,0.2961,-0.5593,0,7.81,9.19,4.25,23.94,-77.63,135.58,0,1014.3,36.776,54.976704,-1.615428,319.35,NaN,,5.81,12.903226,197.2,Nov-22,20525,2016-02-03 15:29:03:206
-0.3832,16.1161,3.3554,-0.84,8.6,-4.64,-4.66,4.69,6.84,1.8994,2.6951,-0.6573,4,7.44,9.5,21.06,338.04,-75.14,140.49,0,1014.29,35.642,54.97669,-1.61544,319.35,NaN,,5.62,12.903226,199.3,Oct-20,21025,2016-02-03 15:29:03:706
-7.0126,14.5761,0.8359,-1.46,9.69,-0.3,-3.9,2.1,-0.16,-0.2312,0.1427,-0.0181,0,6.69,5.13,4.25,31.19,-58.37,167.99,0,1014.31,38.737,54.97669,-1.61544,319.35,NaN,,5.62,12.903226,199.3,Oct-20,21525,2016-02-03 15:29:04:206
0.8071,9.3454,0.4311,-1.35,9.26,-2.93,-6.46,13.05,-8.06,3.6432,4.4603,-0.6466,0,4.5,8.81,22.63,333.7,-75.38,136.64,0,1014.3,38.167,54.976677,-1.615447,322.58,NaN,,4.96,12.903226,195.5,Oct-21,22025,2016-02-03 15:29:04:706
-1.8274,9.0532,-0.594,-1.1,9.63,-1.5,-1.66,-2.99,1.4,-0.2226,-0.1225,0.1577,0,5.25,2.94,9.75,2.52,-59.64,169.3,0,1014.33,36.948,54.976677,-1.615447,322.58,NaN,,4.96,12.903226,195.5,Oct-21,22524,2016-02-03 15:29:05:205
-0.7975,6.924,0.467,-0.59,8.81,-4.26,-0.8,-5.9,4.05,-1.7236,0.3121,-0.0202,4,6,5.88,20.69,7.9,-63.98,172.11,0,1014.3,37.598,54.976665,-1.615451,322.58,NaN,,5.55,12.903226,188.6,Nov-21,23025,2016-02-03 15:29:05:706
-1.9304,6.2055,-0.3425,-1.24,9.62,-1.42,-1.49,-3.93,1.74,-0.734,-1.0173,0.2152,0,4.13,2.56,11.31,1.91,-64.46,161.95,0,1014.31,37.139,54.976665,-1.615451,322.58,NaN,,5.55,12.903226,188.6,Nov-21,23525,2016-02-03 15:29:06:206
0.103,3.2357,-0.6035,-1.42,9.56,-1.65,-1.77,0.21,-1.26,-0.7766,0.5145,-0.3132,0,3.44,5.88,21.88,328.23,-77.17,139.28,0,1014.31,36.635,54.976643,-1.615454,322.58,NaN,,6.31,12.903226,187.8,Nov-22,24025,2016-02-03 15:29:06:706
-0.8143,12.7367,3.1039,-1.01,8.43,-4.91,-0.05,5.89,7.73,-1.0759,0.2269,-0.0629,0,5.63,7.69,24.19,0.46,-59.14,166.43,0,1014.33,39.079,54.976643,-1.615454,322.58,NaN,,6.31,12.903226,187.8,Nov-22,24525,2016-02-03 15:29:07:206
-2.9578,8.5766,-2.1483,-1.98,9.55,-1.05,6.11,4.52,1.61,2.6941,1.289,0.457,0,6.31,4.44,14,322.51,-76.79,117.94,0,1014.31,36.026,54.976624,-1.615458,319.35,NaN,,6.27,16.129032,192.4,Nov-22,25025,2016-02-03 15:29:07:706
-2.1819,10.1549,-6.1336,-1.25,8.33,-5.02,2.48,6.73,5.12,-1.7715,-0.5646,-0.5103,0,6,8.06,20.69,358.99,-60.56,162.99,0,1014.35,35.817,54.976624,-1.615458,319.35,NaN,,6.27,16.129032,192.4,Nov-22,25524,2016-02-03 15:29:08:205
5.2427,11.1177,-2.4956,-2.29,9.5,-0.79,4.05,4.54,3.8,-0.0234,0.5305,0.3899,0,7.44,7,6.94,357.55,-79.96,107.69,0,1014.34,35.407,54.97661,-1.615462,322.58,NaN,,6.55,16.129032,197.5,Nov-21,26024,2016-02-03 15:29:08:705
4.0212,10.2531,1.2478,-0.92,8.23,-5.25,3.81,3.35,5.81,-1.1473,-0.8618,0.2621,4,3.06,11.75,24.19,352.26,-62.28,164.23,0,1014.33,37.754,54.97661,-1.615462,322.58,NaN,,6.55,16.129032,197.5,Nov-21,26525,2016-02-03 15:29:09:206
-3.274,14.715,5.087,-1.86,9.61,-0.54,4.15,3.05,4.95,1.4189,0.4932,0.2045,0,7.81,5.5,3.06,1.41,-81.58,112.1,0,1014.34,36.646,54.97659,-1.615466,325.81,NaN,,5.26,16.129032,201,Dec-21,27025,2016-02-03 15:29:09:706
-5.4415,7.3934,-8.646,-0.88,9.07,-3.61,-1.72,6.97,-5.09,-0.1811,-0.032,0.2482,4,4.13,8.44,26.94,354.91,-67.72,166.3,0,1014.34,38.197,54.97659,-1.615466,325.81,NaN,,5.26,16.129032,201,Dec-21,27525,2016-02-03 15:29:10:206
-6.3588,15.9963,2.5387,-1.93,9.61,-0.45,-1.33,2.35,-0.15,-0.033,0.1534,-0.2589,0,5.25,0.75,0.69,41.66,-57.9,166.58,0,1014.33,37.745,54.976578,-1.615476,335.48,NaN,,5.55,16.129032,206.1,Nov-21,28025,2016-02-03 15:29:10:706
-0.4095,7.3527,-10.2291,-1.32,9.3,-2.82,-4.01,11.7,-4.42,3.4781,3.689,-0.2386,4,6,6.25,15.19,5.18,-67.32,163.72,0,1014.31,38.405,54.976578,-1.615476,335.48,NaN,,5.55,16.129032,206.1,Nov-21,28524,2016-02-03 15:29:11:205
-2.2657,8.4784,0.4718,-1.02,9.63,-1.52,0.39,-2.47,1.42,-0.1119,0.1129,0.1193,0,7.06,4.75,5.81,11.33,-68.82,169.26,0,1014.34,40.603,54.976563,-1.615488,335.48,NaN,,4.79,16.129032,216.6,Aug-20,29024,2016-02-03 15:29:11:705
0.4191,6.3396,-1.3484,-0.74,9.3,-3.01,1.07,-7.59,4.52,-1.9473,-0.3728,-0.0597,0,4.88,5.13,19.06,0.91,-71.57,166.19,0,1014.31,38.955,54.976563,-1.615488,335.48,NaN,,4.79,16.129032,216.6,Aug-20,29525,2016-02-03 15:29:12:206
0.6634,6.5216,-0.9293,-1.22,9.72,-0.4,2.29,-3.2,0.42,-1.2528,-0.5518,0.3419,0,4.5,1.5,8.13,11.12,-75.93,159.36,0,1014.34,37.861,54.976555,-1.615494,341.94,NaN,,3.43,16.129032,216.4,Jul-21,30025,2016-02-03 15:29:12:706
-1.3388,2.0885,0.3449,-1.12,9.67,-1.21,-1.44,-6.67,1.7,1.8184,3.0254,-0.0415,0,3.44,6.25,17.5,261.56,-79.84,68.63,0,1014.33,37.621,54.976555,-1.615494,341.94,NaN,,3.43,16.129032,216.4,Jul-21,30525,2016-02-03 15:29:13:206
1.346,5.3768,-0.1509,-0.52,9.06,-3.71,6.72,3.63,1.89,-1.1761,-0.5039,0.4868,0,3.44,9.19,23.75,359.2,-67.54,172.02,0,1014.37,37.896,54.976547,-1.615499,341.94,NaN,,3.72,16.129032,216.4,Jul-19,31025,2016-02-03 15:29:13:706
-1.9783,4.3302,-0.0287,-1.2,9.73,-0.35,2.38,0.36,-1.92,0.375,0.9374,0.2493,0,4.88,5.88,13.19,309.51,-82.68,106.26,0,1014.35,40.402,54.976547,-1.615499,341.94,NaN,,3.72,16.129032,216.4,Jul-19,31525,2016-02-03 15:29:14:206
-1.54,10.2195,-1.1903,-0.61,9.32,-2.99,3.49,5.16,3.06,-1.3209,-1.7225,0.4751,0,3.44,8.44,16.31,359.17,-71.87,168.47,0,1014.38,42.43,54.97654,-1.615503,341.94,NaN,,3.39,19.35484,216.4,Jul-19,32025,2016-02-03 15:29:14:706
0.1365,10.0064,3.4392,-0.8,9.73,0.97,-1.16,5.54,2.68,0.9779,-0.5433,-0.6338,0,5.63,2.56,1.5,294.1,-82.64,39.51,0,1014.37,45.846,54.97654,-1.615503,341.94,NaN,,3.39,19.35484,216.4,Jul-19,32524,2016-02-03 15:29:15:205
6.833,14.6839,-4.0093,-0.48,9.29,-3.12,-1.2,7.88,7.86,-0.066,-0.065,0.7862,0,6.31,7.31,23.38,5.72,-71.85,171.34,0,1014.37,40.348,54.976536,-1.615511,325.81,NaN,,5.03,16.129032,216.4,Jul-19,33025,2016-02-03 15:29:15:706
-4.3302,15.6898,2.4405,-0.85,9.67,1.4,-3.35,5.95,1.19,0.3675,-0.0277,-0.3302,0,4.13,2.25,1.88,277.95,-81.4,30.76,0,1014.37,38.72,54.976536,-1.615511,325.81,NaN,,5.03,16.129032,216.4,Jul-19,33525,2016-02-03 15:29:16:206
-1.6717,13.9199,4.0452,-0.24,9.03,-3.82,-1.33,4.97,7.86,0.9779,-0.4165,0.0234,0,4.5,9.19,24.94,344.85,-78.8,146.56,0,1014.37,36.717,54.976536,-1.615521,322.58,NaN,,3.31,19.35484,227.3,Jul-22,34025,2016-02-03 15:29:16:706
-1.8657,11.3763,-0.7353,-0.82,9.73,0.86,-0.84,-1.51,-0.85,0.0905,-0.3206,0.3047,0,3.75,2.56,-1.25,71.63,-82.09,150.2,0,1014.37,35.845,54.976536,-1.615521,322.58,NaN,,3.31,19.35484,227.3,Jul-22,34525,2016-02-03 15:29:17:206
-1.3508,17.3974,-7.6521,-0.52,9.29,-3.1,1.17,-3.01,3.54,-1.7343,-0.4272,-0.0778,4,4.5,5.13,16.31,7.51,-71.31,170.48,0,1014.35,38.817,54.976532,-1.615531,316.13,NaN,,3.42,19.35484,244.6,Aug-22,35025,2016-02-03 15:29:17:706
-0.182,10.7081,-0.4287,-0.49,9.79,0.37,-1.08,-2.79,-0.36,-0.5049,-0.9417,0.3494,0,6,4.75,2.25,18.21,-67.92,176.42,0,1014.37,36.15,54.976532,-1.615531,316.13,NaN,,3.42,19.35484,244.6,Aug-22,35525,2016-02-03 15:29:18:206
-0.4814,2.383,-0.3018,-0.54,9.77,-0.66,-2.51,-2.79,-0.34,0.6764,-1.2314,0.392,0,6,7.69,20.25,280.71,-84.49,52.77,0,1014.33,37.292,54.97653,-1.615546,316.13,NaN,,4.67,22.580645,228.3,Jul-21,36024,2016-02-03 15:29:18:705
1.0346,7.027,-0.5197,-0.37,9.72,-1.28,-1.01,-0.94,1.81,-1.991,-0.1609,0.0852,0,7.81,8.81,10.06,26.44,-71.89,172.27,0,1014.33,35.23,54.97653,-1.615546,316.13,NaN,,4.67,22.580645,228.3,Jul-21,36525,2016-02-03 15:29:19:206
-3.1997,6.8114,-0.2491,-0.76,9.78,0.06,-1.82,0.28,-2.42,2.7782,1.6831,0.6743,0,3.75,12.44,17.13,281.7,-85.54,85.49,0,1014.31,34.443,54.97653,-1.615564,309.68,NaN,,6.45,22.580645,235.7,Jul-22,37025,2016-02-03 15:29:19:706
-0.9125,8.6556,1.8298,-0.37,9.52,-2.33,-0.84,0.49,-0.3,-1.0237,-0.7787,-0.5891,0,4.13,9.19,9.69,2.7,-80.83,168.19,0,1014.31,35.572,54.97653,-1.615564,309.68,NaN,,6.45,22.580645,235.7,Jul-22,37524,2016-02-03 15:29:20:205
5.4391,9.422,-2.2896,-0.84,9.72,-0.95,2.43,-0.41,-0.52,1.4711,-0.1278,0.1097,0,7.06,6.63,5.75,276.43,-83.45,42.1,0,1014.3,34.722,54.976524,-1.615579,306.45,NaN,,4.22,29.032257,216.5,Jul-22,38025,2016-02-03 15:29:20:706
-0.3137,10.3417,4.0093,0.28,8.9,-4.11,4.55,3.08,0.55,-1.5532,-0.8234,0.5145,0,4.5,7.69,17.88,6.44,-76.79,172.05,0,1014.33,36.802,54.976524,-1.615579,306.45,NaN,,4.22,29.032257,216.5,Jul-22,38524,2016-02-03 15:29:21:205
5.0774,15.558,-0.7041,-0.17,9.79,0.55,0.23,2.34,4.43,0.9492,-0.881,-0.7713,0,3.75,4.06,-0.12,262.31,-85.76,-11.93,0,1014.34,35.3,54.97652,-1.615591,306.45,NaN,,3.45,25.806452,253.3,Aug-22,39024,2016-02-03 15:29:21:705
1.0945,12.4158,1.2119,0.28,9.34,-2.97,1.31,5.15,3.11,0.587,-3.0254,0.1321,0,6,6.25,16.69,23.5,-72.29,-174.61,0,1014.33,34.691,54.97652,-1.615591,306.45,NaN,,3.45,25.806452,253.3,Aug-22,39524,2016-02-03 15:29:22:205
0.9604,10.2387,2.4597,0.16,9.73,1.21,-1.52,4.06,2.88,0.3984,-0.3622,-0.3899,0,5.25,-0.31,0.69,243.64,-83.08,-15.21,0,1014.34,35.865,54.976517,-1.615601,309.68,NaN,,2.92,32.258064,230.8,Aug-22,40024,2016-02-03 15:29:22:705
-5.8079,23.4904,-13.4648,0.13,9.53,-2.31,0.57,4.5,-2.96,2.1412,5.3103,-0.3526,0,2.31,5.5,21.38,8.34,-76.35,-176.78,0,1014.37,37.026,54.976517,-1.615601,309.68,NaN,,2.92,32.258064,230.8,Aug-22,40524,2016-02-03 15:29:23:205
-3.5782,15.7089,1.2502,0.58,9.6,1.93,-4.75,3.97,-3.69,-0.0085,-0.2621,-0.9278,0,4.5,0.75,-0.12,266.54,-81.11,-5.3,0,1014.35,35.52,54.976513,-1.615608,306.45,NaN,,3.28,35.48387,216.4,Jun-20,41024,2016-02-03 15:29:23:705
1.9448,9.9178,-4.2224,0.38,9.53,-2.3,-1.24,-3.9,3.22,3.9575,5.0685,-0.2589,0,7.44,9.88,15.13,30.87,-76.25,-170.62,0,1014.33,36.332,54.976513,-1.615608,306.45,NaN,,3.28,35.48387,216.4,Jun-20,41525,2016-02-03 15:29:24:206
-0.9029,6.8977,0.3401,-0.3,9.66,1.65,-0.76,-3.85,-2.27,-0.1672,0.0032,0.3004,0,7.44,7,3,91.68,-88.17,-153.43,0,1014.34,35.352,54.97651,-1.615622,303.23,NaN,,3.26,38.709675,230.1,Oct-22,42024,2016-02-03 15:29:24:705
0.7736,2.3759,-0.8742,0.18,9.61,-1.94,-0.33,-5.93,-0.49,1.7428,-0.5358,0.7968,0,5.94,9.5,15.5,232.27,-85.18,24.39,0,1014.33,37.578,54.97651,-1.615622,303.23,NaN,,3.26,38.709675,230.1,Oct-22,42524,2016-02-03 15:29:25:205
0.2251,8.088,0.3401,0.42,9.56,-2.15,-1.96,1.18,-3.06,-1.2485,-0.751,-0.5028,0,8.19,8.06,3.44,21.79,-73.54,179.38,0,1014.35,36.743,54.976505,-1.615637,300,NaN,,3.29,29.032257,247.2,Dec-22,43024,2016-02-03 15:29:25:705
-5.3433,7.3288,-2.1723,-1.07,9.73,-0.57,2.31,-0.62,-0.51,1.5201,2.1156,-0.0245,0,8.5,11.38,6.5,275.4,-84.12,15,0,1014.35,35.992,54.976505,-1.615637,300,NaN,,3.29,29.032257,247.2,Dec-22,43525,2016-02-03 15:29:26:206
-2.2705,12.0278,-3.7386,-0.3,9.4,-2.77,-2.3,-0.68,-4.35,-1.3635,-0.0341,-0.1204,0,6.69,9.19,8.5,26.8,-73.49,173.82,0,1014.35,36.187,54.9765,-1.615661,296.77,NaN,,4.78,32.258064,265.8,Dec-22,44024,2016-02-03 15:29:26:705
6.1193,9.2759,-2.0262,-0.54,9.79,-0.19,2.67,4.17,1.17,1.8024,1.5425,0.1949,0,7.44,9.5,4.56,279.52,-85.63,12.36,0,1014.34,37.441,54.9765,-1.615661,296.77,NaN,,4.78,32.258064,265.8,Dec-22,44525,2016-02-03 15:29:27:206
-0.4455,9.3478,1.8585,0.43,9.5,-2.39,2.54,1.58,2.87,-1.2645,0.6615,0.0447,0,4.13,12.06,18.25,16.67,-74.15,-170.33,0,1014.35,38.187,54.976498,-1.61568,293.55,NaN,,3.38,32.258064,265.7,13 / 22,45025,2016-02-03 15:29:27:706
5.3601,10.7728,-1.0778,0.28,9.78,0.72,2.36,3.04,3.06,0.4634,-0.8948,-0.4922,0,3.75,7,2.63,210.16,-87.75,-24.57,0,1014.34,37.145,54.976498,-1.61568,293.55,NaN,,3.38,32.258064,265.7,13 / 22,45525,2016-02-03 15:29:28:206
-0.6179,17.5866,4.1721,0.41,9.11,-3.61,-5.45,7.76,-8.29,-0.1161,-2.9668,0.0341,0,7.81,17.56,18.25,23.98,-68.26,-173.52,0,1014.37,33.179,54.976486,-1.615692,290.32,NaN,,3.13,32.258064,256.6,Dec-22,46025,2016-02-03 15:29:28:706
-4.9074,15.9005,2.1699,-0.32,9.79,-0.56,-1.84,2.02,-1.2,0.1726,0.0522,-0.6083,0,7.06,13.94,1.81,55.49,-86.29,167.28,0,1014.35,35.227,54.976486,-1.615692,290.32,NaN,,3.13,32.258064,256.6,Dec-22,46525,2016-02-03 15:29:29:206
-0.6107,16.9136,-6.6103,0.37,8.86,-4.18,-0.45,-5.24,2.16,1.0727,1.3071,0.066,0,4.5,13.19,16.31,18.09,-64.66,-174.94,0,1014.35,36.213,54.97648,-1.615696,290.32,NaN,,3.17,32.258064,216.6,Dec-22,47025,2016-02-03 15:29:29:706
-2.8381,11.7524,-0.1269,0.09,9.76,-0.95,-2.52,1.12,-0.76,0.2482,0.0469,-0.1055,0,3.44,10.25,-0.5,49.77,-75.3,-180,0,1014.35,37.191,54.97648,-1.615696,290.32,NaN,,3.17,32.258064,216.6,Dec-22,47525,2016-02-03 15:29:30:206
-0.6227,20.2714,-5.5445,0.7,8.74,-4.39,-0.66,-5.77,2.75,-1.3273,0.5369,-0.3728,0,2.31,14.25,15.88,12.57,-63.04,-170.94,0,1014.34,38.429,54.976463,-1.615698,287.1,NaN,,3.96,32.258064,191.1,Dec-22,48025,2016-02-03 15:29:30:706
0.0455,7.0294,-0.4862,-0.01,9.6,-2.02,0.27,-3.37,1.7,-1.5137,0.1917,0.3984,0,3.75,13.56,7.31,26.41,-68.37,-168.19,0,1014.34,35.406,54.976463,-1.615698,287.1,NaN,,3.96,32.258064,191.1,Dec-22,48525,2016-02-03 15:29:31:206
-3.4895,5.9157,-2.4046,0.06,9.58,-2.11,-4.13,-3.08,-0.76,0.5177,-0.1747,0.2823,0,1.56,15.75,16.69,1.65,-82.64,145.05,0,1014.33,37.687,54.976448,-1.615694,283.87,NaN,,4.22,32.258064,180.5,13 / 22,49025,2016-02-03 15:29:31:706
-1.5472,5.463,0.467,0.82,9.6,-1.84,-2.64,-3.38,2.22,-1.6789,-0.196,-0.0533,0,4.13,12.81,10.44,22.4,-70.93,-165.36,0,1014.31,43.543,54.976448,-1.615694,283.87,NaN,,4.22,32.258064,180.5,13 / 22,49525,2016-02-03 15:29:32:206
3.6452,9.6902,-1.2454,0.49,9.78,0.51,1.68,0.15,2.59,2.4395,2.758,0.2578,0,6.69,13.94,9.25,171.22,-83.1,-59.95,0,1014.3,37.327,54.976433,-1.615689,283.87,NaN,,3.11,35.48387,168.3,Nov-22,50025,2016-02-03 15:29:32:706
-0.8239,8.3011,1.6669,0.46,9.16,-3.46,6.52,2.67,2.02,-0.9449,-0.5752,0.2855,0,4.5,13.94,19.44,25.2,-70.89,-165.01,0,1014.33,34.241,54.976433,-1.615689,283.87,NaN,,3.11,35.48387,168.3,Nov-22,50525,2016-02-03 15:29:33:206
3.8392,14.0875,1.334,0.11,9.78,0.67,-0.54,1.87,3.16,1.0525,-0.0831,-0.7265,0,8.88,9.19,6.94,247.38,-84.42,-20.91,0,1014.3,34.096,54.97642,-1.61568,280.65,NaN,,3.89,38.709675,155.3,Oct-22,51025,2016-02-03 15:29:33:706
3.5973,8.2868,-1.6382,0.98,9.38,-2.67,1.8,7.42,3.39,0.7553,-0.6679,-0.0362,0,3.06,12.06,20.19,23.71,-75.8,-162.09,0,1014.34,34.243,54.97642,-1.61568,280.65,NaN,,3.89,38.709675,155.3,Oct-22,51525,2016-02-03 15:29:34:206
1.8825,11.8793,5.3409,0.79,9.72,1.06,-3.68,5.55,1.66,1.4019,-0.5475,-0.7468,0,2.31,7,0.25,194.08,-84.19,-106.98,0,1014.33,35.16,54.976402,-1.615673,280.65,NaN,,3.86,48.387096,156.3,Dec-22,52025,2016-02-03 15:29:34:706
-2.4429,16.8298,-11.9392,0.92,9.33,-2.87,0.69,1.61,-3.03,0.5934,-0.5028,-0.196,0,1.19,9.19,22.5,18.88,-72.1,-162.23,0,1014.31,33.925,54.976402,-1.615673,280.65,NaN,,3.86,48.387096,156.3,Dec-22,52525,2016-02-03 15:29:35:206
-1.9615,12.6673,-1.2263,0.32,9.77,0.73,-1.9,-1.25,-1.04,-0.8511,-1.2666,0.3292,0,2.31,5.13,0.69,84.35,-83.62,-144.71,0,1014.34,33.112,54.97639,-1.615667,280.65,NaN,,3.73,51.612904,161.3,Dec-22,53025,2016-02-03 15:29:35:706
-0.9676,3.3937,-0.6946,0.04,9.73,-1.22,-3.68,-3.79,0.06,-0.6679,0.0916,-0.098,0,5.25,5.88,15.88,228.4,-84.76,-10.93,0,1014.33,34.115,54.97639,-1.615667,280.65,NaN,,3.73,51.612904,161.3,Dec-22,53525,2016-02-03 15:29:36:206
-1.3652,5.9732,0.7353,0.73,9.66,-1.52,0.35,-3.11,-0.76,-1.3518,0.0937,0.2653,0,4.88,4.44,10.06,49.92,-80.1,-154.35,0,1014.34,37.813,54.97637,-1.615666,277.42,NaN,,5.61,58.064514,173.5,Dec-22,54026,2016-02-03 15:29:36:707
0.6706,2.8285,-0.2635,0.84,9.77,-0.21,-1.3,-7.93,1.43,1.1761,-1.0898,0.4698,0,1.94,10.63,23.31,78.6,-84.94,-104.04,0,1014.34,38.31,54.97637,-1.615666,277.42,NaN,,5.61,58.064514,173.5,Dec-22,54525,2016-02-03 15:29:37:206
0.5988,7.6186,-1.0969,1.5,9.58,-1.45,-0.38,-4.98,1.25,-1.2868,-0.4091,-0.5678,0,2.69,8.06,14.31,53.16,-77.71,-134.03,0,1014.35,36.258,54.97636,-1.615675,277.42,NaN,,3.81,25.806452,178.3,Nov-22,55025,2016-02-03 15:29:37:706
-1.631,8.3419,-1.6597,0.43,9.79,-0.39,4.63,1.84,-1.49,2.8496,0.784,0.489,0,4.5,7,15.88,173.9,-82.68,-23.08,0,1014.35,37.905,54.97636,-1.615675,277.42,NaN,,3.81,25.806452,178.3,Nov-22,55525,2016-02-03 15:29:38:206
0.1557,8.7634,-1.1975,0.91,9.6,-1.81,0.5,2.85,3.11,-2.1636,-0.5337,0.2461,0,-0.62,9.88,22.5,9.51,-68.78,-167.14,0,1014.33,38.993,54.976345,-1.615691,277.42,NaN,,4.41,25.806452,191.8,Nov-23,56025,2016-02-03 15:29:38:706
6.2965,11.8506,-0.4263,0.41,9.7,1.41,5.58,4.77,-0.43,1.1153,0.489,0.131,0,4.88,5.5,10.44,210.72,-80.84,-24.6,0,1014.31,34.089,54.976345,-1.615691,277.42,NaN,,4.41,25.806452,191.8,Nov-23,56525,2016-02-03 15:29:39:206
6.148,10.095,-1.334,0.87,9.23,-3.2,1.41,3.17,2.02,-0.1587,-1.9867,0.1257,0,3.38,11,23.69,22.31,-75.67,-162.98,0,1014.31,36.131,54.976337,-1.615709,280.65,NaN,,1.83,25.806452,201.4,Nov-23,57025,2016-02-03 15:29:39:706
1.9639,14.4228,4.8906,0.98,9.71,0.93,-5.59,4.16,-2.27,-0.3941,-0.0405,-0.3377,0,4.5,4.06,2.63,193.97,-82.08,-46.5,0,1014.31,34.539,54.976337,-1.615709,280.65,NaN,,1.83,25.806452,201.4,Nov-23,57525,2016-02-03 15:29:40:206
2.1603,11.932,-1.7172,1.42,9.45,-2.21,-2.47,5.68,-10.96,3.6698,0.8075,-0.4304,0,1.56,13.94,27.19,28.19,-69.63,-152.61,0,1014.34,31.449,54.976334,-1.615725,280.65,NaN,,1.07,25.806452,206.2,Dec-23,58025,2016-02-03 15:29:40:706
-4.5314,14.7054,0.0192,1.53,9.53,1.72,-3.52,2.56,-3.45,-0.6338,0.2258,-0.4336,0,2.31,5.13,6.5,116.58,-81.7,-74,0,1014.31,36.567,54.976334,-1.615725,280.65,NaN,,1.07,25.806452,206.2,Dec-23,58525,2016-02-03 15:29:41:206
1.037,21.1097,-4.7182,1.5,9.55,-1.67,-2.19,9.41,-3.63,0.0639,0.1811,-0.0405,0,3.06,13.56,20.94,41.9,-73.12,-139.99,0,1014.31,42.115,54.97633,-1.615746,277.42,NaN,,3.69,25.806452,214.4,Dec-23,59025,2016-02-03 15:29:41:706
-0.1221,10.1501,0.6802,1.33,9.71,0.23,-0.73,-4.02,-0.43,-0.7446,-0.5784,0.3654,0,4.88,9.5,5.75,62.29,-75,-129.08,0,1014.31,39.698,54.97633,-1.615746,277.42,NaN,,3.69,25.806452,214.4,Dec-23,59525,2016-02-03 15:29:42:206
-0.5053,6.8066,0.4886,0.92,9.76,0.27,-1.04,0.34,-2.93,2.3329,-0.7585,0.7436,0,1.94,12.44,20.94,108.68,-84.39,-73.64,0,1014.31,41.13,54.97632,-1.615775,274.19,NaN,,5.08,22.580645,225.7,Dec-23,60025,2016-02-03 15:29:42:706
-0.1365,6.8234,1.1233,1.49,9.23,-2.96,-1.58,0.81,0.35,-2.2072,0.3079,-0.261,0,1.56,10.25,12,17.92,-62.73,-163.98,0,1014.34,44.16,54.97632,-1.615775,274.19,NaN,,5.08,22.580645,225.7,Dec-23,60525,2016-02-03 15:29:43:206
-1.5017,6.2079,-1.6286,0.59,9.78,0.34,4.23,2.55,-3.92,1.9367,1.8525,0.0852,0,3.38,8.81,10.81,164.05,-80.28,-28.89,0,1014.33,41.289,54.97631,-1.615804,274.19,NaN,,3.16,22.580645,228.7,Dec-23,61025,2016-02-03 15:29:43:706
2.7662,13.3714,0.4551,0.93,9.28,-3.04,0.25,3.28,4.42,-1.6426,-0.9119,0.5571,0,1.94,10.63,21.69,20.06,-73.31,-160.28,0,1014.31,43.72,54.97631,-1.615804,274.19,NaN,,3.16,22.580645,228.7,Dec-23,61525,2016-02-03 15:29:44:206
5.5948,13.1726,2.6776,0.7,9.62,1.77,-4.08,6.75,-0.74,1.6299,-0.0863,0.2301,0,2.31,4.75,0.25,287.73,-81.94,-19.09,0,1014.34,46.322,54.976307,-1.615825,270.97,NaN,,2.9,22.580645,239.8,Dec-23,62025,2016-02-03 15:29:44:706
4.2272,10.0279,-0.1724,0.66,9.14,-3.49,-1.65,-2.7,-7.12,-0.3111,-0.8575,0.4261,0,0.88,9.5,24.81,12.06,-68.76,-169.29,0,1014.34,39.706,54.976307,-1.615825,270.97,NaN,,2.9,22.580645,239.8,Dec-23,62525,2016-02-03 15:29:45:206
1.0754,10.9069,5.0846,0.55,9.75,0.92,-5.39,4.28,-2.46,0.5976,-0.3451,-0.5071,0,3.06,-0.31,1.06,220.86,-83.73,-30.87,0,1014.33,47.971,54.976303,-1.615839,277.42,NaN,,0.79,25.806452,,Dec-23,63025,2016-02-03 15:29:45:706
-2.862,21.3756,-5.5804,0.43,9.7,-1.37,0.07,2.17,-4.73,0.7808,-0.9651,0.2407,0,2.31,0.75,26,11.77,-71.18,-173.1,0,1014.33,40.304,54.976303,-1.615839,277.42,NaN,,0.79,25.806452,,Dec-23,63525,2016-02-03 15:29:46:206
-0.5437,9.3214,0.2132,0.29,9.71,1.37,-1.04,-0.47,-1.87,-0.5049,-0.3505,-0.3601,0,2.69,-2.56,0.63,257.85,-86.74,9.29,0,1014.34,40.665,54.976303,-1.615839,277.42,NaN,,0.79,25.806452,,Dec-23,64025,2016-02-03 15:29:46:706
0.5724,5.7768,-1.6166,0.56,9.33,-2.97,0.25,-1.9,-1.16,-0.2972,0.5262,-0.3579,0,1.56,4.06,19,16.4,-72.05,-169.32,0,1014.3,46.572,54.976303,-1.615839,277.42,NaN,,0.79,25.806452,,Dec-23,64525,2016-02-03 15:29:47:206
-0.0072,7.003,-1.14,0.5,9.76,-0.85,-1.96,-1.83,2.02,-0.3409,-1.2666,0.4975,0,3.38,2.56,10,36.37,-72.41,-158.63,0,1014.31,52.852,54.976295,-1.615854,283.87,NaN,,1.02,25.806452,44.1,Dec-23,65025,2016-02-03 15:29:47:706
0.1581,3.7961,1.3029,-0.24,9.75,-0.99,-0.43,1.46,-2.28,0.8107,-0.5113,0.1502,0,4.5,8.81,17,283.04,-86.9,35.79,0,1014.28,50.007,54.976295,-1.615854,283.87,NaN,,1.02,25.806452,44.1,Dec-23,65525,2016-02-03 15:29:48:206
-0.0455,2.8788,0.6658,1.3,9.15,-3.28,-1.59,-0.2,-1.96,-0.865,-0.897,-0.3963,0,4.13,5.5,7.69,32.94,-68.79,-156.4,0,1014.31,36.918,54.976288,-1.615861,283.87,NaN,,3.84,25.806452,164.1,Dec-23,66025,2016-02-03 15:29:48:706
6.6055,14.9832,0.661,-0.02,9.77,0.8,4.29,1.45,5.15,0.7148,0.1598,0.1033,0,7.81,5.13,3.38,253.56,-85.32,1.43,0,1014.3,45.43,54.976288,-1.615861,283.87,NaN,,3.84,25.806452,164.1,Dec-23,66525,2016-02-03 15:29:49:206
1.1472,3.1662,0.9532,0.88,9.06,-3.64,-0.74,-0.91,0.18,-1.5798,0.1523,-0.4645,0,4.5,5.88,15.06,24.26,-64.99,-172.38,0,1014.3,43.433,54.976265,-1.615868,283.87,NaN,,4.31,25.806452,182.8,Oct-23,67025,2016-02-03 15:29:49:706
7.1851,12.3152,0.0192,-0.45,9.77,-0.67,3.75,1.68,3.25,1.1217,-0.0107,-0.2056,0,4.13,9.5,1.06,259.03,-88.01,-1.68,0,1014.3,43.072,54.976265,-1.615868,283.87,NaN,,4.31,25.806452,182.8,Oct-23,67525,2016-02-03 15:29:50:206
0.7113,14.8515,0.0503,0.69,8.79,-4.29,-0.58,4.8,4.69,-0.2109,-0.016,0.1225,0,-5.75,23.06,29.13,343.59,-68.19,-178.74,0,1014.31,46.171,54.97625,-1.615879,283.87,NaN,,3.74,25.806452,186.9,Oct-23,68026,2016-02-03 15:29:50:707
3.3243,15.0096,6.1696,0.48,9.79,0.08,1.28,5.57,5.61,0.1811,0.3718,0.3409,0,2.69,7.69,7.69,51.33,-87.56,-120.26,0,1014.31,43.95,54.97625,-1.615879,283.87,NaN,,3.74,25.806452,186.9,Oct-23,68525,2016-02-03 15:29:51:206
7.0893,10.7321,-1.631,0.56,9.16,-3.45,-2.38,8.43,-3.12,-1.2634,-1.1345,0.3952,0,-1.69,12.44,28.31,3.86,-74.32,-172.85,0,1014.31,40.685,54.976227,-1.61589,283.87,NaN,,3.85,25.806452,188.6,13 / 23,69027,2016-02-03 15:29:51:708
-0.0072,14.8587,5.4271,0.43,9.76,0.84,-2.78,1.35,-0.83,0.8298,-0.0479,-0.489,0,-0.25,5.5,0.63,29.07,-77.59,-155.02,0,1014.33,38.943,54.976227,-1.61589,283.87,NaN,,3.85,25.806452,188.6,13 / 23,69525,2016-02-03 15:29:52:206
3.8967,11.7643,-4.2823,0.19,9.41,-2.77,-3.26,9.03,-2.16,2.2637,1.0727,-0.392,0,0.88,9.19,15.88,286.25,-87.96,113.63,0,1014.34,35.724,54.976208,-1.615891,303.23,NaN,,6.08,25.806452,165.5,Oct-23,70024,2016-02-03 15:29:52:705
-3.1614,15.1916,1.1017,0.34,9.8,0.27,-2.47,2.03,-1.98,0.0767,-1.0269,0.425,0,-0.25,7.31,0.25,6.41,-71.09,-162.42,0,1014.33,35.862,54.976208,-1.615891,303.23,NaN,,6.08,25.806452,165.5,Oct-23,70525,2016-02-03 15:29:53:206
2.4573,7.6784,-1.6262,0.53,9.46,-2.51,-0.32,4.32,-3.68,-1.0866,-0.1822,-0.5454,0,0.13,8.44,16.25,12.77,-72,-165.87,0,1014.33,35.365,54.976192,-1.615886,300,NaN,,4.97,29.032257,147.2,Nov-23,71025,2016-02-03 15:29:53:706
-0.5437,8.294,0.8622,0.74,9.77,-0.47,-0.91,-3.88,-0.14,-0.9843,-0.1981,-0.1044,0,1.19,8.06,0.63,73.53,-84.87,-122.42,0,1014.33,36.885,54.976192,-1.615886,300,NaN,,4.97,29.032257,147.2,Nov-23,71525,2016-02-03 15:29:54:206
1.9136,7.1324,1.4634,0.78,9.48,-2.37,-2.16,-8.31,1.33,0.2972,-0.7681,-0.1427,0,-1.69,11,20.5,28.21,-87.1,-145.67,0,1014.3,38.96,54.976177,-1.615885,293.55,NaN,,3.72,29.032257,147.5,Nov-23,72025,2016-02-03 15:29:54:706
-0.9891,6.936,-1.2981,0.52,9.75,-0.96,-1.4,-4.54,0.48,-1.8195,-1.1526,-0.2759,0,3.06,7.69,11.19,26.22,-73.82,-164.95,0,1014.31,48.566,54.976177,-1.615885,293.55,NaN,,3.72,29.032257,147.5,Nov-23,72525,2016-02-03 15:29:55:206
3.6452,13.5726,1.5759,0.12,9.79,0.54,1.71,1.41,1.2,0.5891,-0.3249,-0.0671,0,5.63,6.63,3.38,230.22,-82.87,-19.18,0,1014.29,42.821,54.97616,-1.615891,290.32,NaN,,4.4,32.258064,171.3,Sep-23,73025,2016-02-03 15:29:55:706
-1.1496,5.9923,-1.825,0.52,9.32,-3.01,-2.19,-2.63,-1.75,-2.0165,1.355,0.0288,0,1.56,9.19,16.25,6.7,-72.43,-179.61,0,1014.29,45.664,54.97616,-1.615891,290.32,NaN,,4.4,32.258064,171.3,Sep-23,73524,2016-02-03 15:29:56:205
6.5432,9.4747,4.1889,1.07,9.74,0.32,5.62,-0.36,3.51,1.4914,-0.4144,-0.2525,0,1.19,6.63,9.63,127.04,-79.94,-59.09,0,1014.28,44.82,54.97614,-1.61591,290.32,NaN,,4.61,32.258064,200.1,Sep-23,74025,2016-02-03 15:29:56:706
1.1424,11.2829,2.2609,0.68,9.62,-1.81,3.88,6.27,-0.54,0.3345,1.1697,0.2194,0,3.38,7.69,17,53.85,-85.7,-146.09,0,1014.33,38.36,54.97614,-1.61591,290.32,NaN,,4.61,32.258064,200.1,Sep-23,74525,2016-02-03 15:29:57:206
5.4702,14.6455,-0.1916,1.11,9.74,0.2,-0.47,2.36,0.97,1.2496,0.7446,-1.0408,0,1.94,4.06,7.25,104.41,-82.23,-60.15,0,1014.3,41.461,54.976128,-1.615934,293.55,NaN,,2.74,38.709675,212.9,Sep-23,75025,2016-02-03 15:29:57:706
2.7854,12.2697,-2.2681,0.36,9.67,-1.58,2.94,2.59,-0.75,-1.502,-0.4144,1.1505,0,5.94,10.25,23.25,28.11,-78.87,-167.8,0,1014.3,38.185,54.976128,-1.615934,293.55,NaN,,2.74,38.709675,212.9,Sep-23,75525,2016-02-03 15:29:58:206
-1.9328,14.4947,0.091,1.42,9.55,1.69,-1.18,1.44,0.8,0.8831,0.9758,-0.7276,19,-2.81,5.88,6.06,115.24,-78.63,-28.42,0,1014.31,36.11,54.976116,-1.615956,293.55,NaN,,3.77,45.16129,225.2,Oct-23,76025,2016-02-03 15:29:58:706
0.8383,13.3283,1.6597,0.44,9.63,1.8,0.47,0.85,-1.17,0.4868,-1.7268,-0.3547,24,-2.81,7.69,10,116.17,-80.12,-39.94,0,1014.31,39.678,54.976116,-1.615956,293.55,NaN,,3.77,45.16129,225.2,Oct-23,76525,2016-02-03 15:29:59:206
-1.1257,15.2922,-1.1137,0.43,9.74,1.03,-2.58,-1.64,-2.91,-0.6924,0.636,0.4069,6,3.38,8.44,5.31,29.23,-78.37,-152.27,0,1014.3,38.524,54.9761,-1.615982,293.55,NaN,,5.51,48.387096,221.7,Sep-23,77026,2016-02-03 15:29:59:707
-1.9256,4.4164,5.3624,-2.67,8.06,4.9,-2.45,-2.17,-1.41,-0.1768,3.6581,0.0288,11,4.88,4.75,-1.69,317.78,-64.63,12.65,0,1014.29,35.605,54.9761,-1.615982,293.55,NaN,,5.51,48.387096,221.7,Sep-23,77525,2016-02-03 15:30:00:206
-2.2944,4.5002,7.609,-2.76,3.55,8.71,0.49,1.5,-3.51,-0.1523,0.0256,1.0322,311,5.25,15.75,-22.31,14.04,-27.31,28.36,0,1014.28,35.388,54.976086,-1.616008,293.55,NaN,,4.47,58.064514,214.5,Sep-23,78025,2016-02-03 15:30:00:706
-0.8502,2.6082,6.9001,-1.37,3.58,9.03,0.64,1.01,-1.95,-0.3728,0.5209,0.1119,253,-0.25,16.81,-25.44,8.58,-21.4,8.63,2,1014.3,36.202,54.976086,-1.616008,293.55,NaN,,4.47,58.064514,214.5,Sep-23,78525,2016-02-03 15:30:01:206
-1.2885,3.0489,5.1708,-2.41,3.84,8.7,-2,0.73,-2.04,0.8693,0.7606,0.3547,177,-1,15.75,-26.19,15.63,-26.72,13.73,2,1014.29,36.806,54.976067,-1.616028,293.55,NaN,,4.37,51.612904,209.8,Sep-23,79025,2016-02-03 15:30:01:706
-0.7185,5.1397,7.7527,-2.23,5.34,7.92,-0.16,1.76,1.94,0.2439,-0.2642,-0.4272,415,-2.44,11,-21.94,21.08,-32.98,15.73,2,1014.28,35.667,54.976067,-1.616028,293.55,NaN,,4.37,51.612904,209.8,Sep-23,79524,2016-02-03 15:30:02:205
-4.8355,3.5853,7.427,-2.57,5.76,7.51,-1.7,1.73,1.28,-0.5891,0.2152,-0.0948,416,1.94,8.81,-17.69,12.56,-35.97,18.89,2,1014.28,42.318,54.976048,-1.616042,309.68,NaN,,6.07,61.290325,205.3,Sep-23,80024,2016-02-03 15:30:02:705
-4.9002,5.2954,12.2098,-1.9,4.77,8.35,0.55,2.98,3.22,-0.1172,-1.4626,-0.4655,351,-3.19,14.25,-26.56,27.36,-32.64,21.75,2,1014.29,42.276,54.976048,-1.616042,309.68,NaN,,6.07,61.290325,205.3,Sep-23,80525,2016-02-03 15:30:03:206
0.0599,4.8643,11.6925,1.87,2.53,9.29,-1.48,3.98,-1.12,0.3707,-0.5241,0.6541,408,-9.75,13.56,-32.44,8.96,-14.95,-11.38,2,1014.29,41.988,54.976025,-1.61606,306.45,NaN,,5.55,67.741936,200.4,Dec-23,81025,2016-02-03 15:30:03:706
0.7592,5.2403,12.0829,0.13,4.78,8.56,0.27,1.34,-1.54,-0.0138,-1.2496,-0.3803,239,-14.87,9.5,-28.56,24.29,-23.63,0.7,2,1014.26,38.338,54.976025,-1.61606,306.45,NaN,,5.55,67.741936,200.4,Dec-23,81525,2016-02-03 15:30:04:206
0.3521,5.4151,8.0377,0.64,4.87,8.49,0.03,0.97,-2.33,0.4538,0.1268,-0.0117,288,-10.87,9.5,-23.87,23.6,-29.77,-4.31,2,1014.29,38.577,54.976,-1.616076,306.45,NaN,,5.2,61.290325,200.9,Nov-23,82024,2016-02-03 15:30:04:705
-0.2419,5.4822,5.8894,0.05,5.2,8.31,-0.57,0.59,-3.56,0.4474,-0.1257,0.1044,267,-11.19,7.31,-26.56,24.43,-32.49,-3.33,2,1014.28,41.086,54.976,-1.616076,306.45,NaN,,5.2,61.290325,200.9,Nov-23,82524,2016-02-03 15:30:05:205
-0.503,4.402,5.463,-0.16,5.08,8.38,-0.14,0.29,-3.83,0.3196,-0.5454,-0.3941,239,-8.31,12.44,-24.62,19.76,-29.31,0.34,2,1014.26,38.481,54.975975,-1.616092,306.45,NaN,,5.44,58.064514,204.6,Nov-23,83025,2016-02-03 15:30:05:706
0.079,4.711,6.1289,-0.34,5.69,7.98,-0.75,-0.1,-0.5,-0.2386,-0.2173,-0.1225,224,-9.75,6.25,-22.31,32.14,-35.47,2.44,2,1014.26,38.083,54.975975,-1.616092,306.45,NaN,,5.44,58.064514,204.6,Nov-23,83525,2016-02-03 15:30:06:206
1.8825,5.2523,6.6414,0.53,6.32,7.48,1.1,0.65,0.44,0.3601,-0.2503,-0.2365,203,-10.5,4.06,-20.75,25.04,-46.22,-3.8,2,1014.28,37.137,54.975956,-1.616104,303.23,NaN,,5.21,54.83871,204,Dec-23,84024,2016-02-03 15:30:06:705
-2.8022,6.3252,6.0594,-0.37,6.47,7.36,-1.33,0.46,2.17,-0.7382,0.1854,0.3302,213,-4.62,5.5,-15.75,19.74,-45.48,2,2,1014.26,36.976,54.975956,-1.616104,303.23,NaN,,5.21,54.83871,204,Dec-23,84524,2016-02-03 15:30:07:205
0.0287,6.0043,12.1428,0.24,5.66,8.01,-0.78,1.3,4.11,0.1427,-0.2663,-0.049,215,-9.75,7.69,-22.31,32.82,-39.31,4.54,2,1014.26,37.195,54.975937,-1.61612,306.45,NaN,,5.15,45.16129,205.6,Nov-23,85024,2016-02-03 15:30:07:705
-0.9053,8.2676,10.9788,-0.7,6.17,7.59,-0.5,1.81,-0.52,-0.1012,0.0341,-0.082,202,-5,6.94,-17.69,21.28,-36.7,1.31,2,1014.25,42.108,54.975937,-1.61612,306.45,NaN,,5.15,45.16129,205.6,Nov-23,85524,2016-02-03 15:30:08:205
-0.3976,7.6784,6.3396,-0.72,6.89,6.94,0.16,1.24,-0.56,-0.9928,-0.5358,-0.6338,267,-8.69,1.13,-18.81,47.13,-43.83,13.07,2,1014.26,41.654,54.97592,-1.616142,306.45,NaN,,4.88,45.16129,206.6,Dec-23,86025,2016-02-03 15:30:08:706
1.8394,5.4918,8.5119,-1,5.22,8.24,-1.3,0.04,-3.27,-0.1395,0.098,1.844,169,-9,8.06,-24.62,13.26,-33.39,1.61,2,1014.26,40.524,54.97592,-1.616142,306.45,NaN,,4.88,45.16129,206.6,Dec-23,86525,2016-02-03 15:30:09:206
0.1054,4.79,6.7731,-1.06,4.68,8.55,0.01,0.51,-4.27,0.0575,0.0053,0.6083,166,-11.94,5.5,-25.44,37.86,-29.31,5.64,2,1014.28,40.645,54.975906,-1.616161,303.23,NaN,,3.44,45.16129,207.7,Oct-23,87025,2016-02-03 15:30:09:706
0.5485,2.5842,5.1253,1.01,5.23,8.23,-0.68,-2.12,-5.19,1.208,-0.2727,-0.3611,263,-14.5,5.13,-23.44,42.46,-22.36,-3.6,2,1014.3,39.762,54.975906,-1.616161,303.23,NaN,,3.44,45.16129,207.7,Oct-23,87524,2016-02-03 15:30:10:205
0.3209,4.1266,6.9264,0.5,4.82,8.52,-2.57,0.71,4.19,-0.1928,-0.1129,0.1736,238,-14.87,6.94,-23.44,30.56,-37.8,-4.96,2,1014.29,39.803,54.975887,-1.616166,306.45,NaN,,8.39,45.16129,189.2,Oct-23,88025,2016-02-03 15:30:10:706
0.1796,1.8681,9.6304,0.31,4.33,8.79,-1.96,1.37,6.24,-0.1481,0.3888,-0.4804,183,-17.06,10.63,-30.87,33.72,-26.21,-2.02,2,1014.3,40.966,54.975887,-1.616166,306.45,NaN,,8.39,45.16129,189.2,Oct-23,88524,2016-02-03 15:30:11:205
-0.0263,8.5478,9.604,-0.35,6.03,7.73,-0.23,2.86,1.56,0.62,-1.0876,-1.2655,451,-5,4.06,-18.81,21.74,-37.93,2.59,2,1014.33,40.919,54.975864,-1.616177,309.68,NaN,,5.9,41.935486,184.4,Nov-23,89024,2016-02-03 15:30:11:705
0.0144,11.647,2.1052,-0.8,9.17,3.39,-3.97,4.9,0.74,0.0053,-3.2267,-1.2325,154,3.06,4.06,-3.69,17.59,-44.61,7.74,2,1014.34,40.977,54.975864,-1.616177,309.68,NaN,,5.9,41.935486,184.4,Nov-23,89525,2016-02-03 15:30:12:206
1.3029,13.8432,1.0442,2.81,9.36,0.8,-2.32,4.21,0.63,0.5667,-0.9758,-0.6807,28,-16.31,-1.06,11.13,136.4,-74.71,12.05,2,1014.33,42.934,54.975845,-1.616187,312.9,NaN,,5.07,38.709675,185.3,Nov-22,90025,2016-02-03 15:30:12:706
-0.7688,11.7428,0.8766,1.09,9.73,0.57,-1.48,-0.35,1.81,-0.081,-0.147,0.2823,27,-7.56,-2.19,4.88,33.1,-77.74,-88.07,2,1014.33,41.734,54.975845,-1.616187,312.9,NaN,,5.07,38.709675,185.3,Nov-22,90525,2016-02-03 15:30:13:206
-2.4884,7.8844,1.2526,1.01,9.72,0.8,-2.23,-3.98,-0.11,0.5444,0.1811,0.0309,32,-7.56,2.94,0.63,43.81,-82.45,-51.62,2,1014.34,41.862,54.975845,-1.616187,312.9,NaN,,5.07,38.709675,185.3,Nov-22,91025,2016-02-03 15:30:13:706
0.8191,7.9131,1.3292,0.41,9.13,3.55,0.1,-2.17,-0.48,1.0919,3.0445,0.4314,133,-6.81,0.38,-14.56,30.83,-72.2,4.59,2,1014.33,41.939,54.975845,-1.616187,312.9,NaN,,5.07,38.709675,185.3,Nov-22,91525,2016-02-03 15:30:14:206
0.9772,5.4056,2.5028,1.49,9.44,2.19,0.58,-0.47,-1.23,-0.2376,-0.6445,-0.9811,66,-9,0,-6.81,18.54,-74.33,-34.23,2,1014.3,43.052,54.97581,-1.616213,312.9,NaN,,5.55,38.709675,200.9,13 / 23,92024,2016-02-03 15:30:14:705
0.9867,7.5994,2.6752,0,9.67,1.65,0.45,-3.69,0.73,0.1332,0.5593,-0.0234,67,-2.81,2.94,-6.37,41.78,-79.82,17.81,2,1014.29,42.573,54.97581,-1.616213,312.9,NaN,,5.55,38.709675,200.9,13 / 23,92525,2016-02-03 15:30:15:206
3.4991,8.1263,1.5735,2.22,8.64,4.07,0.93,3.18,5.8,0.8501,0.3867,-0.179,310,-8.69,5.5,-19.19,356.79,-61.78,-28.61,2,1014.29,39.98,54.975796,-1.616227,316.13,NaN,,4.54,41.935486,203.4,Oct-23,93025,2016-02-03 15:30:15:706
1.1712,7.8245,6.3133,1.26,9.06,3.55,2.88,1.29,3.95,1.4232,-0.3398,-0.1374,431,-7.56,8.81,-18.06,13.26,-69.55,-9.41,2,1014.3,40.311,54.975796,-1.616227,316.13,NaN,,4.54,41.935486,203.4,Oct-23,93525,2016-02-03 15:30:16:206
6.3708,9.3238,9.7525,2.48,9.02,2.93,3.2,5.46,-1,-1.958,-3.15,0.2216,178,-12.31,6.94,-19.19,25.54,-74.15,-12.95,2,1014.3,38.96,54.975777,-1.61622,322.58,NaN,,4.45,45.16129,195.5,13 / 23,94024,2016-02-03 15:30:16:705
3.7841,13.7762,8.2676,0.55,8.67,4.54,-2.24,7.5,3.48,-0.4453,-0.1385,0.1193,199,-6.12,11,-16.94,19.62,-77.39,1.34,2,1014.31,39.896,54.975777,-1.61622,322.58,NaN,,4.45,45.16129,195.5,13 / 23,94525,2016-02-03 15:30:17:206
2.4717,13.7498,7.8149,0.25,9.28,3.15,0.81,-0.99,-0.72,-0.4048,-1.9814,0.5614,167,-8.31,6.25,-6.81,21.94,-68.66,0.16,2,1014.31,39.606,54.975754,-1.616218,325.81,NaN,,4.02,38.709675,191.8,13 / 23,95025,2016-02-03 15:30:17:706
1.1879,10.2866,3.5806,0.23,8.92,4.08,-1.06,-0.73,0.73,-0.0096,-0.2674,-0.0288,507,-3.56,8.06,-14.19,357.17,-72.42,-19.11,2,1014.31,39.747,54.975754,-1.616218,325.81,NaN,,4.02,38.709675,191.8,13 / 23,95525,2016-02-03 15:30:18:206
-1.6142,7.8078,3.6788,-1.35,8.39,4.9,-0.31,-0.87,-0.31,0.0905,0.4932,0.2397,240,1.94,10.63,-13.81,3.54,-60.91,-3.25,2,1014.34,41.458,54.975727,-1.616209,329.03,NaN,,4.43,32.258064,193.6,13 / 22,96025,2016-02-03 15:30:18:706
-2.0382,7.7647,5.6211,-0.26,8.88,4.16,0.51,-5.27,-0.89,-0.6434,0.2173,-0.2706,179,-2.44,7.31,-16.94,8.36,-56.84,-6.42,2,1014.31,40.991,54.975727,-1.616209,329.03,NaN,,4.43,32.258064,193.6,13 / 22,96525,2016-02-03 15:30:19:206
0.6658,4.6272,4.4643,1.92,7.73,5.71,0.05,-3.75,-0.82,0.0202,1.0141,0.9715,649,-11.56,9.88,-21.5,11.95,-51.74,-17.24,2,1014.29,41.391,54.975708,-1.616204,332.26,NaN,,3.36,29.032257,199.8,13 / 23,97025,2016-02-03 15:30:19:706
3.0105,5.3984,3.9278,2.07,6.06,7.43,-0.65,-1.88,-3.04,-0.1726,0.1907,-0.1044,518,-11.94,13.56,-27.37,8.44,-38.16,-15.57,2,1014.26,41.363,54.975708,-1.616204,332.26,NaN,,3.36,29.032257,199.8,13 / 23,97525,2016-02-03 15:30:20:206
0.9436,5.8391,8.8137,1.69,5.52,7.93,-0.53,-0.47,-2.95,0.1704,1.1047,1.8642,543,-13.75,12.06,-27.75,14.69,-34.66,-13.4,2,1014.28,40.16,54.975697,-1.616202,332.26,NaN,,2.21,29.032257,198.3,13 / 23,98025,2016-02-03 15:30:20:706
5.5684,5.0295,6.0211,4.42,4.98,7.2,2.02,-0.49,1.44,0.2951,0.5806,1.2559,486,-28.37,9.5,-26.19,30.77,-31.59,-22.51,2,1014.28,39.674,54.975697,-1.616202,332.26,NaN,,2.21,29.032257,198.3,13 / 23,98524,2016-02-03 15:30:21:205
1.7603,0.7137,9.7286,2.85,3.27,8.8,-0.17,1.09,7.66,0.1949,0.6296,0.3111,514,-23.62,13.56,-35.5,19.72,-20.41,-29.74,2,1014.28,41.506,54.97568,-1.616203,332.26,NaN,,3.24,29.032257,197.4,13 / 23,99025,2016-02-03 15:30:21:706
4.347,3.8272,7.8437,3.5,3.36,8.52,0.55,1.73,6.66,0.9406,-0.0085,-0.3419,556,-25.81,9.5,-32,27.42,-20.04,-22.33,2,1014.29,41.935,54.97568,-1.616203,332.26,NaN,,3.24,29.032257,197.4,13 / 23,99525,2016-02-03 15:30:22:206
-1.2406,5.5996,12.1643,0.83,4.22,8.81,0.39,0.14,6.66,-0.6839,-0.8831,0.1992,384,-11.94,12.81,-35.12,6.45,-28.9,-13.81,2,1014.29,41.589,54.975674,-1.616222,322.58,NaN,,5.09,25.806452,238.7,13 / 23,100025,2016-02-03 15:30:22:706
4.8715,3.3243,12.9762,2.46,4.14,8.55,-1.36,1.12,0.19,0.3153,-0.1715,-0.7787,459,-22.94,10.25,-32.81,27.32,-24.95,-16.05,2,1014.3,42.66,54.975674,-1.616222,322.58,NaN,,5.09,25.806452,238.7,13 / 23,100524,2016-02-03 15:30:23:205
-0.024,5.3696,9.4196,1.16,4.95,8.38,-2.04,0.37,-0.77,-0.0053,0.1928,0.4069,481,-12.69,9.88,-30.44,12.99,-27.32,-13.81,2,1014.31,43.92,54.97566,-1.616239,325.81,NaN,,5.33,25.806452,235.8,13 / 23,101024,2016-02-03 15:30:23:705
1.5017,4.0691,7.5443,1.22,4.92,8.39,-1.21,-0.89,-2.99,-0.3153,-0.3356,0.0352,419,-17.44,8.81,-29.69,30.27,-29.49,-6.18,2,1014.31,42.488,54.97566,-1.616239,325.81,NaN,,5.33,25.806452,235.8,13 / 23,101525,2016-02-03 15:30:24:206
2.3399,4.2272,3.7722,3.43,3.5,8.5,-0.54,0.27,-1.84,0.3792,0.3451,0.0138,518,-30.56,13.56,-32.37,32.95,-24.13,-18.9,2,1014.31,41.654,54.975647,-1.616256,325.81,NaN,,5.54,22.580645,234.7,13 / 23,102025,2016-02-03 15:30:24:706
1.722,2.5914,5.8127,3.54,4.8,7.78,-1.13,-2.31,-1.62,0.1374,1.2549,0.0969,522,-28.75,4.75,-25.37,42.18,-24.01,-21.9,2,1014.33,41.641,54.975647,-1.616256,325.81,NaN,,5.54,22.580645,234.7,13 / 23,102524,2016-02-03 15:30:25:205
1.3819,2.007,5.4271,2.93,4.15,8.39,1.24,-1.04,-2.26,0.1236,1.3827,-0.587,494,-23.62,11.38,-29.69,26.78,-25.03,-19.25,2,1014.31,42.415,54.97564,-1.616272,325.81,NaN,,4.91,22.580645,222.5,13 / 23,103024,2016-02-03 15:30:25:705
1.1257,2.6561,5.1086,1.69,4.77,8.4,-0.17,-2.13,-2.18,0.6061,-0.1289,0.6498,416,-21.06,7.69,-24.25,26.22,-27.97,-11.79,2,1014.29,43.41,54.97564,-1.616272,325.81,NaN,,4.91,22.580645,222.5,13 / 23,103525,2016-02-03 15:30:26:206
8.2748,2.68,9.3334,3.84,2.44,8.69,3.5,0.4,0.37,-0.0415,-0.4762,0.4336,679,-26.94,19.75,-30.87,21.72,-23.89,-21.81,2,1014.29,45.123,54.975624,-1.616284,329.03,NaN,,5.46,19.35484,223,13 / 23,104025,2016-02-03 15:30:26:706
-2.2896,3.9685,7.6257,-0.04,5.71,7.97,-3.37,2.33,2.1,-0.1939,-1.3571,0.4762,307,-8.31,8.06,-20.75,12.59,-16.65,-19.79,2,1014.29,44.015,54.975624,-1.616284,329.03,NaN,,5.46,19.35484,223,13 / 23,104524,2016-02-03 15:30:27:205
9.901,4.0667,4.7397,5.95,4.43,6.41,1.86,2.41,3.5,0.3601,-2.269,-0.4389,635,-40.44,10.25,-11.87,40.02,-26.86,-42.87,2,1014.3,43.115,54.97561,-1.616296,329.03,NaN,,4.57,16.129032,223.9,13 / 23,105024,2016-02-03 15:30:27:705
9.058,10.6842,9.7741,5.37,5.4,6.18,-0.15,1.9,1.79,-1.1377,0.6349,0.2983,535,-32.06,9.88,-18.81,14.42,-39,-47.07,2,1014.31,43.913,54.97561,-1.616296,329.03,NaN,,4.57,16.129032,223.9,13 / 23,105525,2016-02-03 15:30:28:206
6.0331,2.9267,10.2674,3.82,3,8.52,0.56,0.66,1.11,-0.1619,-0.2919,0.523,707,-27.62,17.94,-29.31,26.82,-20.53,-21.93,2,1014.3,43.405,54.975597,-1.616306,329.03,NaN,,4.21,16.129032,222.6,13 / 23,106025,2016-02-03 15:30:28:706
4.5362,4.9026,9.7118,3.17,3.76,8.48,-0.11,0.92,0.19,-0.2141,-0.6701,-0.2439,448,-28.37,14.25,-25.81,33.34,-22.55,-20.5,2,1014.31,43.065,54.975597,-1.616306,329.03,NaN,,4.21,16.129032,222.6,13 / 23,106525,2016-02-03 15:30:29:206
4.9433,4.2152,7.8509,4.66,3.66,7.81,-4,-0.45,-2.15,0.6711,-0.2258,0.6402,586,-34.25,13.19,-23.06,32.85,-23.87,-30.85,2,1014.31,44.377,54.975582,-1.616321,329.03,NaN,,5.7,19.35484,225.2,13 / 23,107025,2016-02-03 15:30:29:706
2.5723,4.9888,7.3264,3.66,4.31,8.01,-4,-2.03,-4.22,-1.1356,0.3537,-1.5201,620,-29.87,11,-24.25,20.25,-26.12,-36.74,2,1014.3,43.671,54.975582,-1.616321,329.03,NaN,,5.7,19.35484,225.2,13 / 23,107526,2016-02-03 15:30:30:207
0.491,2.007,5.7025,2.97,4.74,8.05,-2.56,-2.97,-1.64,0.0415,0.6977,0.359,568,-24.37,9.88,-20.37,36.88,-23.18,-20.38,2,1014.29,43.322,54.975574,-1.616335,325.81,NaN,,3.54,19.35484,244.3,13 / 23,108025,2016-02-03 15:30:30:706
7.3599,1.4586,3.3578,4.43,3.97,7.8,2.58,-2.27,-3.39,0.5646,0.0469,-0.4506,521,-30.19,11.69,-19.19,35.31,-26.13,-28.49,2,1014.29,42.851,54.975574,-1.616335,325.81,NaN,,3.54,19.35484,244.3,13 / 23,108525,2016-02-03 15:30:31:206
2.5507,2.2106,5.7504,3.93,5.17,7.35,-1.37,-2.47,-1.57,1.4189,0.2578,0.0565,516,-25.12,10.63,-21.12,30.29,-23.56,-26.71,2,1014.28,41.048,54.975574,-1.616335,325.81,NaN,,3.54,19.35484,244.3,13 / 23,109025,2016-02-03 15:30:31:706
4.6894,3.3674,7.0318,2.59,4.6,8.26,-1.44,0.44,0.68,-0.7404,-0.5997,0.7872,601,-21.44,15,-26.94,22.92,-27.99,-17.41,2,1014.28,40.266,54.975574,-1.616335,325.81,NaN,,3.54,19.35484,244.3,13 / 23,109525,2016-02-03 15:30:32:206
6.7061,3.674,16.0826,3.13,4.98,7.85,2.5,1.71,6.91,0.4165,0.5678,-0.3462,537,-20,11.38,-25,18.31,-31.13,-23.45,2,1014.28,42.177,54.975567,-1.616333,322.58,NaN,,1.87,25.806452,276.8,13 / 23,110025,2016-02-03 15:30:32:706
6.5073,8.3634,11.4817,4.12,4.79,7.5,2.57,4.46,4.48,-0.44,-0.0895,-0.4314,474,-27.62,12.06,-21.87,26.97,-32.71,-30.51,2,1014.26,42.613,54.975567,-1.616333,322.58,NaN,,1.87,25.806452,276.8,13 / 23,110525,2016-02-03 15:30:33:206
2.5627,7.9084,13.9486,3.17,4.17,8.29,-1,1.51,3.3,-0.6701,1.192,-0.1886,443,-15.94,12.81,-24.25,13.92,-31.19,-26.32,2,1014.29,39.853,54.975548,-1.61632,325.81,NaN,,5.67,19.35484,187.9,13 / 23,111027,2016-02-03 15:30:33:708
8.9454,7.3024,8.155,5.04,5.51,6.36,0.75,0.87,-2.47,-0.0543,-1.3859,0.2727,451,-26.19,8.44,-14.56,39.45,-32.09,-26.6,2,1014.28,38.104,54.975548,-1.61632,325.81,NaN,,5.67,19.35484,187.9,13 / 23,111525,2016-02-03 15:30:34:206
3.9566,6.2773,7.9706,4.61,5.06,7.02,-3.51,-0.75,-3.78,-0.6285,-0.6679,-0.1225,488,-23.62,12.06,-21.12,18.08,-31.07,-33.29,2,1014.28,38.938,54.97552,-1.616303,329.03,NaN,,5.66,22.580645,172.7,13 / 23,112025,2016-02-03 15:30:34:706
2.3567,5.3624,3.5398,3.37,5.99,6.99,-3.26,-1.73,-2.09,-0.4708,0.3665,0.4708,475,-20.37,3.31,-15.75,25.73,-33.36,-28.29,2,1014.28,40.856,54.97552,-1.616303,329.03,NaN,,5.66,22.580645,172.7,13 / 23,112525,2016-02-03 15:30:35:206
1.9927,6.6773,5.8127,3.87,6.43,6.31,-4.48,-2.29,-3.31,-0.9768,-0.8522,-0.2471,418,-21.81,5.5,-17.69,24.09,-35.03,-32.03,2,1014.29,39.139,54.975506,-1.616279,325.81,NaN,,3.83,22.580645,158.6,Aug-22,113025,2016-02-03 15:30:35:706
2.3615,4.7254,5.3409,5.28,6.19,5.48,-4.19,-1.98,-2.09,0.0565,0.8298,0.9758,372,-30.56,5.88,-15,33.5,-43.82,-35.22,2,1014.29,37.968,54.975506,-1.616279,325.81,NaN,,3.83,22.580645,158.6,Aug-22,113525,2016-02-03 15:30:36:206
0.4359,3.5279,2.8285,5.99,5.72,5.24,1.39,-1.71,-0.65,0.3185,0.0256,-0.1246,396,-39.31,2.25,-15.37,30.41,-35.71,-48.82,2,1014.29,40.037,54.975487,-1.61626,332.26,NaN,,6.5,22.580645,163.9,Aug-22,114025,2016-02-03 15:30:36:706
2.4765,2.2992,4.9984,5.02,3.67,7.58,-1.29,0.01,2.76,1.1739,1.2229,-0.0948,523,-36.44,6.94,-21.5,41.96,-21.98,-33.52,2,1014.28,42.007,54.975487,-1.61626,332.26,NaN,,6.5,22.580645,163.9,Aug-22,114525,2016-02-03 15:30:37:206
9.022,5.8271,15.582,5.13,3.46,7.6,3,2.96,7.1,0.2205,-0.0895,0.3334,434,-34.25,10.63,-28.12,21.04,-24.64,-36.47,2,1014.29,38.753,54.97547,-1.616253,332.26,NaN,,6.48,22.580645,174.7,Aug-19,115024,2016-02-03 15:30:37:705
5.7792,5.0798,7.4174,5.31,5.16,6.43,0.71,0.01,1.21,0.7329,-0.6424,0.1225,377,-37.12,4.06,-18.81,34.63,-32.37,-39.51,2,1014.28,39.756,54.97547,-1.616253,332.26,NaN,,6.48,22.580645,174.7,Aug-19,115525,2016-02-03 15:30:38:206
9.5561,5.9947,11.2805,5.95,5.15,5.86,3.77,-0.74,5.65,0.8277,-0.6615,-0.3111,412,-41.56,7.31,-16.94,34.16,-34.68,-42.24,2,1014.28,38.748,54.975456,-1.616252,332.26,NaN,,5.26,25.806452,186.9,Jun-20,116025,2016-02-03 15:30:38:706
5.7217,10.277,15.6443,4.71,5.77,6.38,-0.47,2.26,3.08,-1.1846,0.9449,0.3718,203,-32.37,10.63,-23.44,15.7,-37.28,-41.1,2,1014.25,36.923,54.975456,-1.616252,332.26,NaN,,5.26,25.806452,186.9,Jun-20,116525,2016-02-03 15:30:39:206
7.4964,7.9922,11.1416,5.04,5.4,6.45,3.46,1.25,1.53,-1.5233,-0.2131,-0.5997,206,-34.25,10.63,-23.87,34.39,-35.74,-32.17,2,1014.26,36.15,54.975437,-1.616252,319.35,NaN,,5.94,29.032257,189.9,May-22,117025,2016-02-03 15:30:39:706
4.6751,8.3993,8.773,4.69,5.58,6.56,0.51,2.64,1.87,-1.2591,0.8693,-0.5603,304,-24.75,10.63,-26.19,6.46,-30.27,-42.41,2,1014.26,34.689,54.975437,-1.616252,319.35,NaN,,5.94,29.032257,189.9,May-22,117525,2016-02-03 15:30:40:206
7.5156,5.5564,8.543,3.76,5.8,6.96,-2.06,-2.91,-4.25,-0.4293,-1.1995,0.5497,112,-30.94,11,-20.37,32.41,-36.25,-28.38,2,1014.26,37.685,54.975414,-1.616247,322.58,NaN,,6.95,32.258064,184.1,May-22,118026,2016-02-03 15:30:40:707
5.3385,5.008,9.2544,5.16,4.32,7.13,-1.43,-0.3,-1.7,-0.6008,-0.0895,-0.391,68,-32.06,15.38,-24.25,20.54,-25.23,-36.84,2,1014.25,39.136,54.975414,-1.616247,322.58,NaN,,6.95,32.258064,184.1,May-22,118525,2016-02-03 15:30:41:206
0.8622,2.9435,4.3254,3.14,4.67,8.03,-1.24,-1.11,-3.4,0.9481,0.5955,0.0192,53,-38.25,12.44,-23.44,21.56,-19.73,-34.67,2,1014.25,38.44,54.975395,-1.616248,322.58,NaN,,6.05,38.709675,181.6,May-22,119025,2016-02-03 15:30:41:706
0.1437,2.6178,5.6858,2.67,1.56,9.31,0.35,0.31,-0.66,0.7862,-0.6008,-0.4772,27,-24.75,15.38,-35.87,40.13,-30.18,-23.21,2,1014.25,37.984,54.975395,-1.616248,322.58,NaN,,6.05,38.709675,181.6,May-22,119525,2016-02-03 15:30:42:206
0.5293,2.692,5.1732,2.93,2.78,8.94,-0.09,-1.44,-2.96,-0.1225,0.865,0.2695,23,-15.25,14.63,-32,10,-16.46,-18.15,2,1014.26,38.032,54.975384,-1.616256,322.58,NaN,,5.35,45.16129,185.7,May-22,120025,2016-02-03 15:30:42:706
3.1495,2.9866,5.6355,3.49,3.03,8.65,1.99,-0.62,-2.63,-0.0192,-0.1055,-0.3611,32,-12.69,13.56,-33.94,4.04,-19.29,-18.12,2,1014.29,38.501,54.975384,-1.616256,322.58,NaN,,5.35,45.16129,185.7,May-22,120524,2016-02-03 15:30:43:205
0.9604,2.9339,6.6534,1,5.49,8.06,0.12,-2.37,-1.43,-0.0107,-0.669,0.0192,34,-8.31,14.25,-35.12,5.63,-32.93,-7.96,2,1014.29,38.764,54.975376,-1.616267,322.58,NaN,,3.91,41.935486,197.2,Jul-23,121024,2016-02-03 15:30:43:705
3.9302,2.5818,7.7958,1.08,5.2,8.24,0.08,-0.41,2.07,-1.4093,-0.1566,-0.2013,23,-9.75,13.88,-33.56,12.53,-33.34,-5.25,2,1014.33,41.05,54.975376,-1.616267,322.58,NaN,,3.91,41.935486,197.2,Jul-23,121524,2016-02-03 15:30:44:205
-1.4394,3.7746,14.509,0.03,3.73,9.07,-1.85,0.93,5.33,-0.9555,-0.0895,0.1289,22,-6.81,24.13,-35.12,6.89,-18.79,-6.93,2,1014.33,43.119,54.97537,-1.616292,322.58,NaN,,6.88,41.935486,225,Aug-23,122025,2016-02-03 15:30:44:706
4.2296,4.3829,12.4134,2.05,3.83,8.79,2.09,0.68,3.29,0.0426,0.1161,-0.0128,26,-17.81,18.63,-30.44,21.62,-23.24,-10.81,2,1014.28,43.894,54.97537,-1.616292,322.58,NaN,,6.88,41.935486,225,Aug-23,122525,2016-02-03 15:30:45:206
0.9173,6.833,10.2028,2.44,5.12,8,-1.42,1.6,2.24,-0.62,0.4964,0.1087,32,-14.87,15,-28.12,9.98,-29.31,-19.11,2,1014.25,45.359,54.975365,-1.616334,322.58,NaN,,8.21,51.612904,251.2,Aug-23,123025,2016-02-03 15:30:45:706
4.7182,2.0166,12.9283,4.87,3.05,7.94,-0.94,0.67,-2.31,-0.5028,1.0258,0.0383,53,-25.12,20.13,-26.19,14.44,-18.13,-31.52,2,1014.24,46.486,54.975365,-1.616334,322.58,NaN,,8.21,51.612904,251.2,Aug-23,123524,2016-02-03 15:30:46:205
0.3114,2.6345,10.3225,2.78,2.95,8.93,-2.08,0.96,-0.46,-0.4208,0.6232,0.5848,27,-22.56,18.31,-26.94,21.81,-16.83,-22.69,2,1014.24,48.146,54.97537,-1.616379,322.58,NaN,,7.42,58.064514,268.1,Aug-23,124025,2016-02-03 15:30:46:706
2.9219,5.9756,7.791,2.64,3.94,8.59,-1.62,0.62,-2.07,0.5795,0.6147,0.1747,27,-21.81,14.63,-19.94,31.53,-18.98,-16.09,2,1014.26,49.532,54.97537,-1.616379,322.58,NaN,,7.42,58.064514,268.1,Aug-23,124525,2016-02-03 15:30:47:206
-1.0969,3.3243,5.5157,1.74,5.31,8.06,-0.84,-1.96,-1.64,0.0863,0.6722,-0.6498,30,-14.12,15,-20.37,20.89,-32.78,-12.18,2,1014.28,47.081,54.97537,-1.616429,319.35,NaN,,9.5,58.064514,263.5,Sep-23,125025,2016-02-03 15:30:47:706
-0.4551,4.6439,7.2066,-0.15,4.94,8.47,-0.07,-1.14,-0.47,-0.3782,-0.2908,0.2802,29,-10.5,13.88,-21.5,24.67,-30.25,1.01,2,1014.31,44.922,54.97537,-1.616429,319.35,NaN,,9.5,58.064514,263.5,Sep-23,125525,2016-02-03 15:30:48:206
2.316,2.7854,7.5299,2.07,5.75,7.67,-0.66,-0.1,2.99,-0.4357,-0.1555,-0.098,44,-17.06,10.63,-21.87,22.88,-38.56,-15.98,2,1014.3,42.447,54.975357,-1.61648,319.35,NaN,,10.23,64.51613,252.4,Sep-23,126025,2016-02-03 15:30:48:706
12.9762,0.5868,0.8383,8.34,0.27,5.15,1.18,0.78,4.84,0.6083,-3.1958,1.2645,4,-54.31,30.69,-6.44,34.89,-34.53,-48.16,2,1014.29,43.034,54.975357,-1.61648,319.35,NaN,,10.23,64.51613,252.4,Sep-23,126525,2016-02-03 15:30:49:206
11.2686,-1.7076,5.4822,9.78,0.41,0.62,3.71,-0.49,3.73,-1.9185,1.3071,-1.8461,4,-56.12,30.69,6,27.83,5.5,-76.85,0,1014.29,40.801,54.975334,-1.616513,319.35,NaN,,8.9,64.51613,236.8,Sep-23,127025,2016-02-03 15:30:49:706
12.4062,7.6832,2.7758,7.23,6.55,-0.98,4.23,1.58,1.08,-0.7755,0.7808,-0.4517,5,-37.12,8.44,11,357.62,-42.75,-108.54,0,1014.28,48.975,54.975334,-1.616513,319.35,NaN,,8.9,64.51613,236.8,Sep-23,127525,2016-02-03 15:30:50:206
-0.0407,16.8082,0.206,4.74,8.58,0.3,-3.99,7.96,0.21,0.3121,-0.4836,0.5997,6,-37.5,6.94,6,21.18,-43.8,-81.31,0,1014.26,50.075,54.97532,-1.61652,319.35,NaN,,6.59,67.741936,229.5,Jul-23,128025,2016-02-03 15:30:50:706
-1.8226,22.6665,-13.1151,-0.31,9.8,0.27,1.88,-1.39,-6.98,1.3231,-3.8009,0.1683,0,10.75,-31.19,18.63,143.28,-73.07,-75.18,0,1014.29,44.752,54.97532,-1.61652,319.35,NaN,,6.59,67.741936,229.5,Jul-23,128525,2016-02-03 15:30:51:206
-0.2658,10.3585,-0.8047,0.07,9.7,1.46,-0.25,-1.42,-0.69,-0.6967,0.2067,0.1843,0,5.31,-30.5,8.19,200.09,-81.43,-2.74,0,1014.3,41.318,54.975307,-1.616546,319.35,NaN,,8.57,70.96774,226,Jul-23,129025,2016-02-03 15:30:51:706
2.2202,11.6494,-10.0279,-0.46,9.73,-1.16,3.7,0.28,-4.84,-1.1899,0.7894,-0.0341,0,7.88,-25.37,23.31,294.14,-86.99,97.82,0,1014.3,40.204,54.975307,-1.616546,319.35,NaN,,8.57,70.96774,226,Jul-23,129525,2016-02-03 15:30:52:206
-1.6693,6.4043,-0.0024,-0.48,9.79,-0.02,4.41,-3.92,0.97,-0.6764,-1.0525,0.359,0,8.94,-30.5,14.38,300.73,-87.19,92.39,0,1014.33,39.535,54.975292,-1.616562,316.13,NaN,,7.31,67.741936,223.1,Sep-23,130026,2016-02-03 15:30:52:707
-2.6633,3.5806,2.2441,-0.26,9.8,-0.06,-0.25,-4.47,-2.3,-1.7023,-0.93,-0.6051,0,14.44,-30.5,19,220.11,-81.54,10.38,0,1014.31,38.625,54.975292,-1.616562,316.13,NaN,,7.31,67.741936,223.1,Sep-23,130524,2016-02-03 15:30:53:205
2.7854,5.7385,0.0479,0.45,9.79,0.17,1.07,-2.93,0.97,-1.3028,0.8586,0.1513,0,9.31,-33.37,1.56,186.96,-87.19,-69.3,0,1014.33,39.484,54.97528,-1.616577,319.35,NaN,,5.55,70.96774,227.7,Sep-23,131024,2016-02-03 15:30:53:705
-0.3928,11.441,-0.8622,0.09,9.72,1.29,10.02,0.42,-3.33,1.8461,-0.359,0.2567,0,7.88,-32.69,10.06,206.22,-82.42,-3.99,0,1014.3,42.424,54.97528,-1.616577,319.35,NaN,,5.55,70.96774,227.7,Sep-23,131525,2016-02-03 15:30:54:206
1.2526,9.2352,4.4188,1.87,9.27,-2.61,0.18,0.38,7.24,-1.2826,0.31,-0.0831,0,4.94,-33.37,16.69,79.2,-75.65,-145.39,0,1014.3,37.929,54.975273,-1.6166,319.35,NaN,,5.26,70.96774,232.2,Sep-23,132025,2016-02-03 15:30:54:706
5.8151,11.4386,4.7254,1.4,9.69,0.63,6.54,4.31,3.25,1.1398,0.637,0.1342,0,6.38,-31.94,6.63,170.19,-76.07,-58.33,0,1014.29,37.689,54.975273,-1.6166,319.35,NaN,,5.26,70.96774,232.2,Sep-23,132525,2016-02-03 15:30:55:206
8.0113,7.2473,-1.0299,1.97,9.44,-1.76,1.06,1.55,-10.43,-0.9396,-0.3419,0.5965,0,1.25,-25.75,20.94,92.41,-67.32,-139.83,0,1014.3,40.268,54.97526,-1.616637,316.13,NaN,,7.88,83.87097,238.6,Oct-23,133025,2016-02-03 15:30:55:706
2.5914,10.5046,5.0631,2.35,9.36,1.74,-2.88,3.87,-2.14,0.3537,-0.2269,-0.3952,0,3.81,-24.25,7,167.13,-72.65,-53.48,0,1014.29,39.451,54.97526,-1.616637,316.13,NaN,,7.88,83.87097,238.6,Oct-23,133525,2016-02-03 15:30:56:206
6.2654,14.3893,2.1819,1.93,9.59,-0.74,0.52,9.43,-3.49,3.1979,1.9015,0.5827,0,2.38,-24.25,20.19,89.65,-77.84,-110.98,0,1014.31,39.904,54.975243,-1.616654,319.35,NaN,,5.73,83.87097,232.2,Oct-23,134025,2016-02-03 15:30:56:706
-0.182,13.5774,0.1868,2.44,9.24,2.2,-1.68,3.88,-1.65,0.0511,-0.0714,-0.1087,0,-0.56,-31.19,8.56,124.57,-75.88,-92.87,0,1014.3,38.37,54.975243,-1.616654,319.35,NaN,,5.73,83.87097,232.2,Oct-23,134525,2016-02-03 15:30:57:206
3.25,20.3409,-4.1697,2.12,9.46,-1.46,2.05,9.49,-2.11,2.0144,0.963,0.4336,0,-2.75,-33.37,23.69,65.31,-71.91,-132.34,0,1014.31,37.772,54.975224,-1.61665,319.35,NaN,,6.73,64.51613,211.8,Oct-23,135025,2016-02-03 15:30:57:706
1.3747,11.2805,-0.2515,2.22,9.55,0.13,0.51,-3.22,0.82,-0.6722,-0.9864,0.2333,0,-2.37,-37.06,14.75,115.82,-76.89,-86.65,0,1014.33,37.895,54.975224,-1.61665,319.35,NaN,,6.73,64.51613,211.8,Oct-23,135525,2016-02-03 15:30:58:206
1.5472,5.5062,1.9016,2.1,9.49,-1.3,-0.62,-6.12,-1.08,-1.4733,-0.522,-0.3718,0,1.25,-32.31,25.63,127.11,-78.42,-66.04,0,1014.33,39.392,54.9752,-1.616654,322.58,NaN,,5.87,58.064514,198.2,Sep-23,136025,2016-02-03 15:30:58:706
3.2596,5.3457,0.5628,2.36,9.52,-0.2,1.64,-3.39,0.58,-1.6139,-0.6466,-0.539,0,-0.94,-38.87,13.56,78.95,-70.97,-127.12,0,1014.35,37.723,54.9752,-1.616654,322.58,NaN,,5.87,58.064514,198.2,Sep-23,136525,2016-02-03 15:30:59:206
-2.0693,5.2619,-0.788,1.91,9.55,1.19,7.95,2.94,1.2,1.0088,2.2413,0.4932,0,2.75,-35.94,23.31,162.98,-69.62,-48.32,0,1014.33,38.195,54.975178,-1.616664,325.81,NaN,,6.99,61.290325,200.3,Jul-23,137024,2016-02-03 15:30:59:705
3.8033,12.5475,2.7279,2.4,9.03,-2.98,1.78,3.6,6.4,-1.6458,-1.5649,0.2621,0,-0.56,-32.69,23.25,63.83,-68.91,-135.8,0,1014.35,38.463,54.975178,-1.616664,325.81,NaN,,6.99,61.290325,200.3,Jul-23,137524,2016-02-03 15:31:00:205
-0.2826,9.0436,0.2802,1.68,9.62,0.91,1.99,2.86,4.79,0.882,1.6458,0.4389,0,3.13,-38.5,13.19,148.09,-78.77,-61.56,0,1014.31,36.799,54.97516,-1.616681,325.81,NaN,,4.65,64.51613,211.3,Jul-23,138024,2016-02-03 15:31:00:705
1.2646,9.434,-2.1938,2.14,9.01,-3.23,9.02,9.39,4.31,-1.3486,-0.1523,-0.0991,0,-3.5,-29.37,28.31,51.6,-74.48,-136.08,0,1014.34,35.257,54.97516,-1.616681,325.81,NaN,,4.65,64.51613,211.3,Jul-23,138525,2016-02-03 15:31:01:206
9.3454,13.8001,3.9422,1.89,9.56,1.05,-0.32,5.25,3.59,1.1345,-1.0812,-1.4328,0,-1.31,-37.06,10.5,133.73,-77.87,-67.17,0,1014.34,36.182,54.975143,-1.616695,325.81,NaN,,5.35,64.51613,217.3,Aug-23,139025,2016-02-03 15:31:01:706
-0.0934,11.5656,1.6765,1.88,9.53,-1.32,0.84,4.18,5.19,-0.6679,-1.4605,0.1598,0,-5.31,-29.37,26.38,77.36,-81.64,-100.92,0,1014.35,35.685,54.975143,-1.616695,325.81,NaN,,5.35,64.51613,217.3,Aug-23,139525,2016-02-03 15:31:02:206
-1.0538,15.4167,-0.6323,2.5,9.25,2.1,-1.82,-1.74,-1.09,0.1907,-0.1523,-0.3643,0,-5.69,-35.94,7.75,141.39,-70.56,-49.97,0,1014.33,36.957,54.97512,-1.616681,329.03,NaN,,4.8,51.612904,207.1,Aug-23,140025,2016-02-03 15:31:02:706
4.6463,18.9111,-9.8651,2.25,9.46,-1.24,1.76,-2.09,0.76,1.7257,1.2666,0.0927,0,-6.37,-33.75,22.5,61.53,-67.16,-137.13,0,1014.35,37.073,54.97512,-1.616681,329.03,NaN,,4.8,51.612904,207.1,Aug-23,140525,2016-02-03 15:31:03:206
0.4383,8.4736,2.2585,1.81,9.59,0.97,-0.96,-1.89,0.74,-0.2674,0.196,0.3494,0,-8.56,-38.5,9.69,13.18,-73.37,-136.01,0,1014.33,36.02,54.975098,-1.616662,338.71,NaN,,4.71,45.16129,190.6,Sep-23,141025,2016-02-03 15:31:03:706
1.3125,4.6392,0.7592,2.63,9.04,-2.74,-1.82,-4.93,4.98,-1.8024,-0.1161,-0.4133,0,-9.69,-32.31,26.38,120.95,-79.33,-64.56,0,1014.33,36.687,54.975098,-1.616662,338.71,NaN,,4.71,45.16129,190.6,Sep-23,141525,2016-02-03 15:31:04:206
0.4431,5.9828,0.4551,2.53,9.34,-1.57,-0.76,-2.82,3.03,-0.6413,-0.7116,0.343,0,-8.56,-35.94,10.5,67.8,-72.32,-121.82,0,1014.33,37.221,54.97507,-1.616642,338.71,NaN,,4.53,48.387096,168.8,Aug-23,142025,2016-02-03 15:31:04:706
0.5796,3.2189,-2.2777,1.51,9.69,-0.17,-2.19,-0.35,0.71,2.9391,-1.0184,0.5497,0,-5.69,-29.37,27.56,80.61,-81.09,-96.42,0,1014.33,36.249,54.97507,-1.616642,338.71,NaN,,4.53,48.387096,168.8,Aug-23,142525,2016-02-03 15:31:05:206
2.8764,4.438,-0.1557,2.35,9.27,-2.18,-0.71,0.38,1.36,-1.8024,1.403,-0.1374,0,-8.25,-32.69,22.5,47.87,-63.3,-144.79,0,1014.33,34.31,54.975056,-1.616625,335.48,NaN,,5.01,45.16129,160.4,Oct-23,143025,2016-02-03 15:31:05:706
-0.5628,7.2904,-0.079,1.43,9.7,-0.13,-0.16,0.79,0.45,1.4466,1.8493,0.2482,0,-2,-34.87,19.38,130.29,-74.88,-64.54,0,1014.35,36.162,54.975056,-1.616625,335.48,NaN,,5.01,45.16129,160.4,Oct-23,143525,2016-02-03 15:31:06:206
5.1134,13.5319,0.9197,1.94,8.8,-3.86,9.28,4.9,0.84,-1.7108,-1.2528,0.1726,0,-9.69,-28.31,30.63,16.76,-63.85,-153.32,0,1014.38,36.074,54.97504,-1.616609,335.48,NaN,,4.03,45.16129,154,Sep-24,144025,2016-02-03 15:31:06:706
10.9931,13.163,2.6441,2.16,9.42,1.66,7.28,0.46,3.02,0.8075,-1.436,-1.3369,0,-7.12,-35.25,14.38,123.5,-75.15,-58.33,0,1014.34,37.474,54.97504,-1.616609,335.48,NaN,,4.03,45.16129,154,Sep-24,144526,2016-02-03 15:31:07:207
5.3289,12.0925,-1.9112,1.37,9.69,-0.68,0.52,4.21,-8.02,-0.1055,1.9526,0.2333,0,-2.37,-29.37,21.69,39.93,-75.96,-137.39,0,1014.35,39.037,54.97503,-1.616593,335.48,NaN,,3.08,41.935486,152.5,Sep-24,145024,2016-02-03 15:31:07:705
-2.2585,14.5689,-0.8454,2.04,9.29,2.37,-3.03,3.96,-1.9,0.8,-0.7031,-1.3294,0,-2.37,-33.37,8.94,158.13,-71.22,-33.89,0,1014.37,36.867,54.97503,-1.616593,335.48,NaN,,3.08,41.935486,152.5,Sep-24,145525,2016-02-03 15:31:08:206
1.5232,12.8038,-8.8735,2.19,9.52,-0.83,1.38,8.39,-5.56,1.3007,0.7191,0.016,0,-7.12,-28.31,21.69,68.19,-76.18,-110.76,0,1014.35,37.748,54.97502,-1.616581,332.26,NaN,,4.15,41.935486,149,Oct-24,146025,2016-02-03 15:31:08:706
1.3604,11.2446,0.1772,1.97,9.35,2.22,-1,2.22,-1.4,-0.0863,0.196,0.0884,0,-6.75,-34.87,7,138.45,-72.39,-41.59,0,1014.38,36.707,54.97502,-1.616581,332.26,NaN,,4.15,41.935486,149,Oct-24,146525,2016-02-03 15:31:09:206
3.7027,13.3858,-3.3027,2.11,9.46,-1.47,1.32,5.75,-1.86,0.6253,0.5965,0.1459,0,-3.12,-31.94,21.69,149.21,-73.37,-43.7,0,1014.37,36.697,54.975014,-1.616586,329.03,NaN,,4.64,38.709675,182.1,Sep-24,147026,2016-02-03 15:31:09:707
0.7832,8.1838,1.049,2.11,9.54,0.84,-1.94,-3.37,-1.81,-1.2496,0.4964,0.3867,0,-2.37,-32.69,10.44,133.24,-76.61,-68.29,0,1014.37,36.025,54.975014,-1.616586,329.03,NaN,,4.64,38.709675,182.1,Sep-24,147525,2016-02-03 15:31:10:206
1.073,6.0378,1.5975,1.95,9.61,0.01,-0.92,-1.16,-0.5,2.2019,-0.6956,0.7947,0,-1.31,-31.56,17.44,164.7,-68.25,-44.11,0,1014.35,39.171,54.975006,-1.616597,325.81,NaN,,4.28,35.48387,227.9,Oct-24,148025,2016-02-03 15:31:10:706
2.407,5.0224,0.4479,2.58,9.46,-0.15,-0.76,0.41,-1.71,-1.4828,-1.5627,-0.6008,0,-3.81,-29.37,10.06,108.33,-74.72,-93.33,0,1014.38,37.489,54.975006,-1.616597,325.81,NaN,,4.28,35.48387,227.9,Oct-24,148525,2016-02-03 15:31:11:206
-1.2478,4.9026,-1.9376,2.07,9.53,-1,-0.49,-0.02,-1.28,2.6855,0.538,0.6977,0,-3.5,-32.69,14.31,130.53,-76.81,-60.57,0,1014.34,36.143,54.975014,-1.616641,316.13,NaN,,4.72,29.032257,260.2,Oct-24,149025,2016-02-03 15:31:11:706
1.6765,8.7777,0.7999,2.74,8.91,-3.04,-2.74,0.99,-1.19,-2.0432,-1.4136,0.2866,0,-5.31,-30.87,14.31,94.52,-65.33,-137.97,0,1014.34,36.191,54.975014,-1.616641,316.13,NaN,,4.72,29.032257,260.2,Oct-24,149525,2016-02-03 15:31:12:206
1.3268,9.5489,-0.9005,2.65,9.32,1.48,6.17,0,-1.99,2.171,1.403,0.7478,0,-3.5,-34.87,4.63,154.4,-69.24,-61.67,0,1014.31,48.044,54.97502,-1.616697,316.13,NaN,,3.46,22.580645,244,Oct-24,150025,2016-02-03 15:31:12:706
3.0824,14.6623,-12.8732,2.44,9.41,-1.28,0.68,3.84,-1.93,1.3081,0.897,-0.1566,0,-8.25,-29.75,19.38,62.45,-73.68,-117.68,0,1014.37,47.649,54.97502,-1.616697,316.13,NaN,,3.46,22.580645,244,Oct-24,150525,2016-02-03 15:31:13:206
2.3232,14.9785,4.129,2.94,9.03,2.45,-1.13,6.48,0.4,0.3121,-0.0916,-0.2407,0,-7.12,-35.94,11.63,139.73,-67.03,-50.19,0,1014.35,46.391,54.97503,-1.616749,312.9,NaN,,4.31,19.35484,237.7,Oct-24,151025,2016-02-03 15:31:13:706
2.7686,11.6949,0.115,2.52,9.35,-1.56,-2.39,-1.9,-8.66,3.0584,1.4615,0.0863,0,-2.75,-30.87,24.44,81.22,-68.13,-122.82,0,1014.37,42.035,54.97503,-1.616749,312.9,NaN,,4.31,19.35484,237.7,Oct-24,151525,2016-02-03 15:31:14:206
-0.7305,13.6061,0.0934,2.66,9.26,1.84,-1.79,-1.93,-1.33,-0.277,0.3633,0.0405,0,-3.12,-35.94,3.88,156.86,-70.75,-55.33,0,1014.37,40.415,54.975033,-1.616798,306.45,NaN,,4.1,16.129032,224.3,Oct-24,152025,2016-02-03 15:31:14:706
2.3256,13.9318,-4.1482,3.19,9.14,-1.55,-0.2,-5.67,-0.91,-1.1579,0.9982,-0.3718,0,-2.75,-31.19,18.63,116.68,-74.96,-76.13,0,1014.35,42.978,54.975033,-1.616798,306.45,NaN,,4.1,16.129032,224.3,Oct-24,152525,2016-02-03 15:31:15:206
0.3137,7.7,0.1269,2.05,9.47,1.5,-0.14,-3.72,-2.37,-0.9161,-1.1377,0.2951,0,-3.12,-35.94,-1.19,137.99,-75.32,-101.13,0,1014.39,41.566,54.97503,-1.616836,306.45,NaN,,4.57,16.129032,217.2,Oct-24,153025,2016-02-03 15:31:15:706
2.6537,2.4621,0.6802,2.64,9.35,-1.37,-1.12,-6.12,2.4,0.066,0.8906,-0.4474,0,-3.81,-34.5,16.69,141.55,-76.88,-53.95,0,1014.35,48.111,54.97503,-1.616836,306.45,NaN,,4.57,16.129032,217.2,Oct-24,153525,2016-02-03 15:31:16:206
3.0728,5.499,0.2491,2.79,9.4,0.19,-0.78,-2.39,0.37,-1.6085,0.1417,-0.1694,0,-2.37,-36.31,7.38,89.6,-74.73,-110.4,0,1014.37,47.928,54.975025,-1.616875,306.45,NaN,,6.57,19.35484,217,Oct-24,154025,2016-02-03 15:31:16:706
0.3305,8.4448,-0.946,2.25,9.41,1.59,6.27,3.33,-0.1,2.2999,0.2088,0.6764,0,1.25,-37.75,12.81,176.99,-67.7,-50.23,0,1014.33,42.335,54.975025,-1.616875,306.45,NaN,,6.57,19.35484,217,Oct-24,154525,2016-02-03 15:31:17:206
1.3867,11.3692,-3.1854,2.87,9.16,-2,1.77,0.96,2.38,-1.5521,-0.5593,-0.1395,0,-3.5,-33.75,24.44,96.64,-74.59,-104.68,0,1014.33,41.133,54.975018,-1.616907,306.45,NaN,,4.86,16.129032,216.2,Oct-24,155025,2016-02-03 15:31:17:706
1.9879,15.2108,6.1384,2.81,9.03,2.58,-1.21,2.75,3.95,0.6168,-0.1119,-0.4037,0,-1.31,-37.75,1.56,160.64,-73.84,-64.84,0,1014.35,43.071,54.975018,-1.616907,306.45,NaN,,4.86,16.129032,216.2,Oct-24,155524,2016-02-03 15:31:18:205
4.6871,9.3142,2.9794,2.79,9.24,-1.74,0.9,14.2,-4.62,0.3089,0.4751,-0.4527,0,-3.81,-33.06,27.13,83,-68.22,-125.61,0,1014.39,42.409,54.975006,-1.616934,306.45,NaN,,5.9,16.129032,202.3,Oct-24,156024,2016-02-03 15:31:18:705
-0.0814,16.916,4.8978,3.11,9.23,1.14,-1.68,4.85,-1.53,-0.0085,-0.0927,-0.2258,0,1.25,-37.06,1.13,177.52,-70.26,-69.87,0,1014.37,46.597,54.975006,-1.616934,306.45,NaN,,5.9,16.129032,202.3,Oct-24,156525,2016-02-03 15:31:19:206
2.7567,25.3369,-4.0356,3.09,8.83,-2.95,0.19,-0.48,3.6,3.5175,-0.1385,-0.637,0,1.25,-38.5,15.5,118.65,-64.47,-137.97,0,1014.37,45.172,54.974995,-1.616957,309.68,NaN,,5.68,12.903226,202.2,Oct-24,157025,2016-02-03 15:31:19:706
-1.3005,14.3342,-0.7496,2.86,9.13,2.16,0.24,1.44,-2.42,-0.3963,0.0511,0.212,0,1.63,-41.81,-2.31,190.45,-73.86,-76.42,0,1014.38,47.432,54.974995,-1.616957,309.68,NaN,,5.68,12.903226,202.2,Oct-24,157525,2016-02-03 15:31:20:206
3.377,20.1852,-6.4881,2.66,8.8,-3.4,1.61,11.41,-4.3,0.4453,2.7697,-0.2567,0,0.94,-37.44,24,84.99,-67.75,-136.64,0,1014.37,49.121,54.974983,-1.616977,309.68,NaN,,5.74,12.903226,202.4,Oct-24,158025,2016-02-03 15:31:20:706
-2.007,14.7557,-1.4634,1.8,9.55,1.3,-3.1,4.82,-2.33,-0.2866,0.0724,0.1055,0,0.56,-43.25,0.75,178.84,-76.91,-54.16,0,1014.39,45.291,54.974983,-1.616977,309.68,NaN,,5.74,12.903226,202.4,Oct-24,158525,2016-02-03 15:31:21:206
2.5028,22.985,-7.5347,2.03,9.16,-2.85,-0.99,-5.31,3.7,-2.3383,-0.1087,-0.4559,0,2,-38.87,18.94,83.49,-73.81,-138.85,0,1014.38,44.684,54.974976,-1.616996,306.45,NaN,,5.47,12.903226,208.2,Oct-24,159025,2016-02-03 15:31:21:706
0.9245,12.0182,0.5317,2.16,9.44,1.54,-0.22,-3.11,-1.14,-0.4826,-0.4495,0.4932,0,0.19,-44,2.69,155.64,-78.07,-101.09,0,1014.41,41.452,54.974976,-1.616996,306.45,NaN,,5.47,12.903226,208.2,Oct-24,159525,2016-02-03 15:31:22:206
3.6907,21.548,-4.8068,1.93,9.4,-2.01,0.29,-6.14,2.3,-1.1143,0.1768,-0.3771,0,0.94,-40.31,20.94,80.74,-73.49,-136.16,0,1014.38,43.201,54.97496,-1.617016,309.68,NaN,,5.98,9.677419,211.7,Sep-24,160025,2016-02-03 15:31:22:706
1.6166,6.7899,0.2946,2.29,9.53,0.33,-0.53,-2.47,-1.21,-0.9822,-0.8874,0.3366,0,1.25,-41.06,7.38,147.8,-71.55,-121.69,0,1014.44,44.056,54.97496,-1.617016,309.68,NaN,,5.98,9.677419,211.7,Sep-24,160525,2016-02-03 15:31:23:206
0.7544,2.4429,0.8047,2.14,9.17,-2.73,-1.78,-5.5,3.43,0.4069,0.5987,0.2333,0,2.75,-36.69,22.06,112.09,-80.49,-90.35,0,1014.41,42.029,54.97495,-1.617032,309.68,NaN,,5.51,9.677419,212.1,Oct-24,161025,2016-02-03 15:31:23:706
4.1985,4.826,1.928,1.88,9.47,-1.74,0.59,0.42,-0.8,-1.3731,1.0024,0.3025,0,1.25,-40,15.88,113.75,-66.36,-147.89,0,1014.43,42.309,54.97495,-1.617032,309.68,NaN,,5.51,9.677419,212.1,Oct-24,161525,2016-02-03 15:31:24:206
-0.1605,4.5865,-4.0955,1.59,9.67,0.31,1.58,2.46,0.05,1.371,1.3039,0.6402,0,0.94,-35.25,23.25,176.19,-73.45,-44.85,0,1014.41,43.599,54.974937,-1.617046,312.9,NaN,,6.34,9.677419,210.1,Oct-24,162025,2016-02-03 15:31:24:706
-0.1461,6.6749,1.0251,2.75,8.46,-4.13,0.25,1.54,5.51,-1.6821,1.926,-0.2162,0,0.56,-33.75,23.25,71.47,-70.68,-130.12,0,1014.42,43.803,54.974937,-1.617046,312.9,NaN,,6.34,9.677419,210.1,Oct-24,162525,2016-02-03 15:31:25:206
10.4423,13.1008,4.2775,2.59,9.43,0.73,-0.26,5.19,4.93,1.4988,-1.0962,-1.24,0,3.13,-34.5,12,135.48,-74.37,-89.35,0,1014.39,44.553,54.97492,-1.617057,309.68,NaN,,5.85,9.677419,200.4,Aug-22,163025,2016-02-03 15:31:25:706
-1.4753,9.1298,-6.4258,2.85,9.26,-1.51,-0.1,2.96,-9.77,0.8554,-0.7063,-0.4687,0,-4.94,-30.87,25.56,75.15,-70.8,-117.92,0,1014.43,44.608,54.97492,-1.617057,309.68,NaN,,5.85,9.677419,200.4,Aug-22,163525,2016-02-03 15:31:26:206
3.6524,9.9848,5.3624,2.44,9.36,1.58,2.96,0.2,4.7,0.6115,-0.7499,-0.5369,0,-4.19,-38.12,3.5,154.07,-70.76,-57.64,0,1014.43,42.235,54.974907,-1.617062,309.68,NaN,,5.45,9.677419,185.4,Jun-22,164025,2016-02-03 15:31:26:706
-1.5017,11.7021,-2.7543,1.85,9.54,-1.31,1.42,12.11,-1.74,1.1185,0.0415,0.2376,0,-1.31,-34.12,24,115.78,-80.82,-77.83,0,1014.43,41.863,54.974907,-1.617062,309.68,NaN,,5.45,9.677419,185.4,Jun-22,164525,2016-02-03 15:31:27:206
1.0035,17.3615,4.2104,1.9,9.57,1.03,0.56,1.28,-0.98,0.2248,-0.1491,0.1257,0,-0.19,-35.25,7.75,148.39,-77.27,-61.54,0,1014.41,40.393,54.97489,-1.617068,309.68,NaN,,5.32,9.677419,185,Jun-24,165025,2016-02-03 15:31:27:706
3.5327,8.27,-0.0575,1.63,9.26,-2.8,2.42,5.76,-1.19,-2.9881,0.0884,-0.1811,0,0.56,-31.56,18.94,59.67,-73.62,-149.36,0,1014.41,41.667,54.97489,-1.617068,309.68,NaN,,5.32,9.677419,185,Jun-24,165525,2016-02-03 15:31:28:206
0.1485,7.9802,1.1879,2.28,9.38,1.75,0.18,-0.69,-0.34,-1.1057,0.3473,0.5774,0,-1.62,-37.06,9.25,118.4,-77.83,-97.78,0,1014.42,41.192,54.974876,-1.617076,309.68,NaN,,6.52,12.903226,191.9,Aug-22,166025,2016-02-03 15:31:28:706
1.7316,3.6716,-0.4862,1.54,9.64,-0.89,-0.82,-6.64,0.27,-0.8586,0.4698,0.0277,0,0.56,-31.94,24.75,132.18,-80.78,-58.54,0,1014.43,39.652,54.974876,-1.617076,309.68,NaN,,6.52,12.903226,191.9,Aug-22,166525,2016-02-03 15:31:29:206
0.5509,6.251,-1.4993,2.16,9.51,-1.08,2.17,-3.51,2.65,-1.5446,0.3334,-0.1491,0,-2,-33.37,13.94,101.06,-68.04,-136.99,0,1014.44,39.593,54.974865,-1.617095,309.68,NaN,,6.21,12.903226,212.1,Aug-24,167025,2016-02-03 15:31:29:706
-1.176,3.6069,-1.2167,1.53,9.55,-1.6,-1.41,-6.01,1.09,3.0967,-0.9609,0.7872,0,2.38,-32.69,17.38,121.18,-82.39,-78,0,1014.43,37.531,54.974865,-1.617095,309.68,NaN,,6.21,12.903226,212.1,Aug-24,167525,2016-02-03 15:31:30:206
2.2896,4.2703,0.879,1.72,9.6,-1.02,1.86,-4.73,4.07,-2.0261,-1.1782,-0.3654,0,1.63,-34.12,13.5,70.67,-66.76,-146.6,0,1014.44,37.97,54.974854,-1.617118,306.45,NaN,,5.43,16.129032,221.4,Oct-24,168025,2016-02-03 15:31:30:706
0.4072,10.2076,-0.8718,0.83,9.77,0.09,10.76,3.96,4.16,0.6977,0.5603,-0.3505,0,5.31,-36.31,15.06,123.82,-85.12,-83.81,0,1014.42,40.468,54.974854,-1.617118,306.45,NaN,,5.43,16.129032,221.4,Oct-24,168524,2016-02-03 15:31:31:205
1.1376,11.7907,-3.7889,1.54,9.2,-3.01,2.69,4.05,5.79,-1.4189,0.9758,-0.0586,0,-0.56,-29.75,25.5,47.53,-73.68,-144.75,0,1014.44,41.855,54.97484,-1.617139,309.68,NaN,,5.08,16.129032,225.3,Oct-23,169024,2016-02-03 15:31:31:705
8.0521,8.4305,-0.4503,1.51,9.58,1.48,6.89,0.86,4.13,0.7404,0.3132,0.082,0,0.56,-35.25,10.81,144.31,-79.52,-50.69,0,1014.43,41.55,54.97484,-1.617139,309.68,NaN,,5.08,16.129032,225.3,Oct-23,169524,2016-02-03 15:31:32:205
2.007,19.3781,-3.7314,1.77,9.33,-2.43,3.1,2.03,2,2.1092,2.0624,0.2802,0,-0.19,-31.94,20.13,59.8,-70.35,-150.79,0,1014.43,41.537,54.974827,-1.617147,312.9,NaN,,4.14,22.580645,216.1,Dec-24,170025,2016-02-03 15:31:32:706
0.3616,15.2754,4.2943,1.67,9.57,1.31,0.37,2.65,0.38,0.1513,-0.0629,-0.4549,0,-0.56,-35.56,5.81,136.43,-81.96,-87.49,0,1014.43,42.845,54.974827,-1.617147,312.9,NaN,,4.14,22.580645,216.1,Dec-24,170525,2016-02-03 15:31:33:206
-0.0671,7.3,-8.5287,1.64,9.43,-2.15,2.67,10.04,-1.74,4.2344,1.3934,-0.017,0,-3.5,-30.87,25.94,46.53,-70.06,-153.36,0,1014.43,43.429,54.974815,-1.617152,312.9,NaN,,2.99,25.806452,205.4,Oct-21,171025,2016-02-03 15:31:33:706
-1.3771,15.4718,-1.2143,1.77,9.57,1.23,1.47,2.7,0.97,-0.3143,-0.1907,0.3515,0,-4.94,-40.69,6.19,65.77,-76.02,-148.46,0,1014.44,41.408,54.974815,-1.617152,312.9,NaN,,2.99,25.806452,205.4,Oct-21,171525,2016-02-03 15:31:34:206
0.3784,14.3246,-12.9211,1.97,9.37,-2.11,2.59,6.25,-2.15,1.6416,-0.1758,-0.0703,0,-4.56,-37.06,27.06,99.63,-84.94,-83.37,0,1014.44,41.29,54.974804,-1.617157,312.9,NaN,,5.18,25.806452,201.8,Dec-24,172025,2016-02-03 15:31:34:706
0.9532,6.5168,-1.0634,2.4,9.51,-0.1,0.19,-3.72,1.82,-0.7595,-0.5135,0.3292,0,-2.75,-42.87,12.38,127.62,-69.57,-125.97,0,1014.44,41.488,54.974804,-1.617157,312.9,NaN,,5.18,25.806452,201.8,Dec-24,172525,2016-02-03 15:31:35:206
1.2382,2.6178,-1.8945,1.75,9.62,-0.81,-0.63,-6.18,0.6,0.636,1.9814,0.4932,0,-2.75,-36.69,29.81,73.38,-78.67,-114.84,0,1014.44,42.619,54.97479,-1.617162,312.9,NaN,,5.78,25.806452,197.8,Nov-24,173025,2016-02-03 15:31:35:706
3.8368,5.4535,-0.8814,2.29,9.3,-2.13,0.13,0.21,3.27,-1.2751,-0.702,-0.5092,0,-2,-46.19,21.25,73.61,-68.04,-129.69,0,1014.44,43.602,54.97479,-1.617162,312.9,NaN,,5.78,25.806452,197.8,Nov-24,173525,2016-02-03 15:31:36:206
-1.9519,8.4903,0.4311,1.31,9.68,-0.92,1.1,1.46,1.68,3.1638,1.5723,0.4123,0,4.56,-38.87,26.31,79.81,-80.61,-125.08,0,1014.44,43.153,54.97477,-1.61716,312.9,NaN,,5.69,32.258064,190.2,Dec-24,174025,2016-02-03 15:31:36:706
0.6754,9.1753,1.4011,2.52,9.09,-2.67,-0.73,2.1,-3.24,-1.958,1.7907,0.4687,0,0.56,-36.31,24.38,82.64,-64.98,-144.32,0,1014.44,41.765,54.97477,-1.61716,312.9,NaN,,5.69,32.258064,190.2,Dec-24,174525,2016-02-03 15:31:37:206
-0.0335,10.4806,-0.3545,2.94,9.26,1.32,0.49,2.92,5.45,0.5454,-0.3025,-0.2482,0,4.19,-41.06,10.81,158.37,-70.81,-65.82,0,1014.44,41.46,54.974747,-1.617152,316.13,NaN,,5.8,32.258064,179.7,Dec-24,175025,2016-02-03 15:31:37:706
3.7817,10.0399,4.0667,3.15,8.58,-3.54,1.27,7.59,8.2,-1.5436,-1.1153,0.3228,0,-0.94,-34.5,29.38,74.43,-65.83,-135.2,0,1014.47,40.628,54.974747,-1.617152,316.13,NaN,,5.8,32.258064,179.7,Dec-24,175525,2016-02-03 15:31:38:206
2.201,15.6874,3.5806,2.98,9.33,0.49,-0.72,6.25,4.61,0.931,-0.9342,-1.2634,0,1.25,-39.25,13.13,136.2,-73.58,-84.62,0,1014.46,39.867,54.974724,-1.617141,319.35,NaN,,7,35.48387,176.1,Dec-24,176025,2016-02-03 15:31:38:706
3.5566,14.0252,2.8189,2.72,9.04,-2.67,-0.65,-3.43,6.03,-1.2325,-0.1129,-0.5124,0,-1.62,-33.06,27.81,65.98,-71.56,-131.86,0,1014.48,40.606,54.974724,-1.617141,319.35,NaN,,7,35.48387,176.1,Dec-24,176525,2016-02-03 15:31:39:206
-0.4072,13.1439,-0.843,3.05,9.28,0.87,-0.54,0.18,1.05,-0.3835,-0.3196,0.1364,0,-3.5,-37.75,9.25,136.19,-72.82,-80.86,0,1014.47,42.079,54.9747,-1.617129,319.35,NaN,,7.11,35.48387,169.6,Nov-24,177025,2016-02-03 15:31:39:706
4.6487,9.4915,-6.2462,3.21,8.65,-3.32,2.11,0.9,-1.3,-1.4903,-0.3366,-0.7436,0,-3.12,-35.56,23.19,92.19,-61.9,-135.97,0,1014.44,40.797,54.9747,-1.617129,319.35,NaN,,7.11,35.48387,169.6,Nov-24,177525,2016-02-03 15:31:40:206
-0.2515,8.2556,0.9772,2.63,9.43,-0.5,0.71,-3.37,4.5,-1.3561,0.9449,0.5188,0,-1.62,-39.25,9.63,125.62,-59.84,-140.27,0,1014.46,42.321,54.97468,-1.61712,319.35,NaN,,5.44,35.48387,168,Nov-24,178025,2016-02-03 15:31:40:706
1.734,3.2548,-1.049,2.47,9.01,-2.98,-2.82,-3.34,2.08,2.2445,-0.9364,0.7457,0,-0.19,-36.31,21.63,84.61,-79.08,-113.81,0,1014.43,41.275,54.97468,-1.61712,319.35,NaN,,5.44,35.48387,168,Nov-24,178525,2016-02-03 15:31:41:206
2.989,5.9636,-0.855,2.61,9.07,-2.68,0.59,-4.38,3.4,-1.1132,-0.6594,-0.0629,0,-3.5,-39.62,18.94,90.01,-67.83,-138.95,0,1014.44,40.289,54.974663,-1.617119,319.35,NaN,,4.72,35.48387,171.6,Nov-24,179025,2016-02-03 15:31:41:706
-1.7627,8.8807,0.1485,1.83,9.63,-0.4,5.57,1.05,4.21,2.2147,2.3361,0.5294,0,1.25,-38.5,24.75,96.88,-78.99,-102.33,0,1014.43,39.688,54.974663,-1.617119,319.35,NaN,,4.72,35.48387,171.6,Nov-24,179525,2016-02-03 15:31:42:206
2.328,5.1661,0.9556,2.6,9.3,-1.71,-0.78,0.55,2.91,-1.9612,-1.8706,-0.4719,0,-1.31,-31.56,24.75,76.34,-64.98,-137.93,0,1014.44,40.422,54.97465,-1.617125,319.35,NaN,,4.94,38.709675,191.3,Nov-24,180025,2016-02-03 15:31:42:706
0.297,11.5847,-0.8718,2.41,9.42,1.24,2.26,-0.01,5.87,1.3305,-1.6959,-1.3103,0,2.75,-37.06,12.38,149.38,-72.57,-62.21,0,1014.43,39.429,54.97465,-1.617125,319.35,NaN,,4.94,38.709675,191.3,Nov-24,180524,2016-02-03 15:31:43:205
3.2524,12.6697,3.0728,2.63,8.46,-4.21,7.11,4.34,2.33,-1.6565,-0.4538,0.1939,0,-3.81,-26.81,26.69,64.06,-70.77,-126.69,0,1014.46,40.809,54.97464,-1.61713,316.13,NaN,,3.72,41.935486,194.9,Dec-24,181024,2016-02-03 15:31:43:705
8.3682,11.4338,4.62,2.51,9.36,1.51,1.45,2.56,5.57,1.0365,-0.294,-0.6583,0,-0.94,-39.62,4.25,163.24,-72.62,-58.97,0,1014.44,40.095,54.97464,-1.61713,316.13,NaN,,3.72,41.935486,194.9,Dec-24,181524,2016-02-03 15:31:44:205
8.2461,11.6254,-3.5734,2.63,8.98,-2.95,1.92,6.74,-2.07,0.7958,-0.391,-0.4943,0,-1.31,-34.5,28.25,71.33,-66.25,-138.28,0,1014.44,39.034,54.97463,-1.617131,316.13,NaN,,3.78,35.48387,196.9,Dec-24,182025,2016-02-03 15:31:44:706
0.9867,15.1724,3.7698,3.11,9.29,0.51,0.46,0.96,1.59,-0.2866,1.1281,0.0117,0,-3.81,-41.06,6.19,147.61,-71.26,-80.69,0,1014.44,39.921,54.97463,-1.617131,316.13,NaN,,3.78,35.48387,196.9,Dec-24,182525,2016-02-03 15:31:45:206
4.893,12.7702,-4.9745,3.16,9,-2.28,0.83,8.8,-3.63,3.5164,0.1875,0.0298,0,-2.75,-37.44,27.06,84.17,-71.95,-115.97,0,1014.42,38.991,54.974617,-1.61714,312.9,NaN,,4.49,29.032257,185.4,Dec-24,183025,2016-02-03 15:31:45:706
0.9604,7.5323,-0.2874,2.43,9.47,-0.82,-0.2,-2.95,2.39,-0.8384,-0.882,0.1406,0,0.19,-40.69,11.19,125.09,-74.85,-108.65,0,1014.43,39.336,54.974617,-1.61714,312.9,NaN,,4.49,29.032257,185.4,Dec-24,183525,2016-02-03 15:31:46:206
0.7353,3.2429,-1.7292,2.77,8.87,-3.15,-0.76,-5.5,4.57,-0.5518,-0.1939,0.0021,0,-2,-35.94,27.81,91.91,-78.76,-98.72,0,1014.42,39.627,54.974606,-1.617149,316.13,NaN,,5.04,22.580645,204.6,Nov-24,184025,2016-02-03 15:31:46:706
0.4167,6.7444,-0.9963,2.88,9.22,-1.72,1.69,-4.07,3.63,-1.4573,1.3039,0.3185,0,-2.75,-39.62,11.19,114.03,-60.9,-137.38,0,1014.43,41.3,54.974606,-1.617149,316.13,NaN,,5.04,22.580645,204.6,Nov-24,184525,2016-02-03 15:31:47:206
-0.0766,2.3663,-2.383,1.88,9.6,-0.66,7.53,0.73,1.49,1.844,-0.8607,0.5507,0,0.19,-33.75,27.06,146.07,-70.73,-80.22,0,1014.42,41.501,54.97459,-1.617159,316.13,NaN,,3,25.806452,204.3,Nov-24,185025,2016-02-03 15:31:47:706
4.8499,4.814,-0.8263,3.2,8.73,-3.11,0.99,3.64,10.62,-1.584,-1.11,-0.7574,0,-4.56,-37.75,21.25,73.59,-59.77,-134.84,0,1014.42,41.262,54.97459,-1.617159,316.13,NaN,,3,25.806452,204.3,Nov-24,185525,2016-02-03 15:31:48:206
8.6532,15.2587,2.5627,1.73,9.65,-0.08,7.53,3.48,3.35,0.8171,0.9992,0.5902,0,2.75,-39.25,15.81,138.56,-74.01,-75.86,0,1014.39,37.895,54.97458,-1.617166,312.9,NaN,,4.51,19.35484,215.2,Dec-24,186025,2016-02-03 15:31:48:706
2.1292,13.1822,2.4573,2.35,8.9,-3.37,0.84,4.74,7.09,-2.2285,-1.9984,0.6392,0,-5.31,-29.37,26.63,51.94,-63.64,-138.07,0,1014.41,37.669,54.97458,-1.617166,312.9,NaN,,4.51,19.35484,215.2,Dec-24,186525,2016-02-03 15:31:49:206
10.6267,13.369,2.4597,1.64,9.67,0.13,9.76,2.57,2.95,1.0546,-0.9982,-1.4828,0,-3.12,-34.12,9.63,119.04,-75.78,-71.87,0,1014.39,38.792,54.974567,-1.61717,316.13,NaN,,3.74,19.35484,213.8,Dec-24,187025,2016-02-03 15:31:49:706
3.5374,7.3623,3.6285,2.15,8.76,-3.84,-0.56,0.59,-0.67,-0.0703,-0.1214,-0.2344,0,-6.37,-30.87,26.31,48.69,-75.54,-126.87,0,1014.43,38.436,54.974567,-1.61717,316.13,NaN,,3.74,19.35484,213.8,Dec-24,187525,2016-02-03 15:31:50:206
0.2491,14.9737,4.9888,1.72,9.32,2.51,-3.19,4.13,-1.56,0.1406,0.016,-0.1257,0,-3.81,-40,8.5,154.16,-71.92,-34.42,0,1014.43,41.243,54.974556,-1.617179,316.13,NaN,,4.48,19.35484,223,Dec-24,188025,2016-02-03 15:31:50:706
3.9925,12.3535,-11.908,1.73,9.6,-1.03,0.44,7.51,-1.76,-0.4655,2.5843,-0.3441,0,-2.37,-32.31,22.44,66.14,-79.72,-122.87,0,1014.42,42.144,54.974556,-1.617179,316.13,NaN,,4.48,19.35484,223,Dec-24,188525,2016-02-03 15:31:51:206
1.061,13.0145,-0.2754,1.12,9.74,0.03,0.44,-4.6,4.07,-1.2378,0.8043,0.5145,0,-0.19,-33.37,6.94,119.49,-83.44,-88.47,0,1014.44,38.707,54.974545,-1.617191,316.13,NaN,,4.55,22.580645,224.2,Dec-24,189025,2016-02-03 15:31:51:706
3.0273,13.7211,-6.421,1.65,9.3,-2.64,0.83,-6.08,2.99,-1.192,0.8437,-0.1491,0,3.44,-28.31,19.31,158.65,-76.87,-61.59,0,1014.43,39.107,54.974545,-1.617191,316.13,NaN,,4.55,22.580645,224.2,Dec-24,189525,2016-02-03 15:31:52:206
0.4527,6.9935,1.3029,1.91,9.62,-0.16,-1.57,-3.08,2.2,-1.0173,-1.0035,0.1907,0,3.13,-31.56,8.88,129.73,-69.1,-141.03,0,1014.42,38.905,54.97453,-1.617199,316.13,NaN,,4.56,25.806452,218.2,Dec-24,190025,2016-02-03 15:31:52:706
0.4551,4.1434,0.2826,2.2,9.44,-1.47,-0.19,-5.3,2.53,1.877,-0.6242,0.3803,0,4.94,-31.56,16.56,99.86,-81.4,-112.02,0,1014.42,38.76,54.97453,-1.617199,316.13,NaN,,4.56,25.806452,218.2,Dec-24,190525,2016-02-03 15:31:53:206
4.826,5.178,-2.716,2.3,9.52,-0.53,2.49,-4.11,-0.15,-1.5904,1.1963,-0.3068,0,3.81,-34.12,14.25,113.44,-69.26,-134.42,0,1014.42,37.667,54.974518,-1.617199,316.13,NaN,,4.9,25.806452,197.1,Nov-24,191025,2016-02-03 15:31:53:706
0.7113,9.616,-0.582,1.73,9.63,0.61,6.92,3.47,1,1.0429,0.8053,0.5625,0,8.56,-36.31,11.56,156.33,-79.22,-70.58,0,1014.42,37.386,54.974518,-1.617199,316.13,NaN,,4.9,25.806452,197.1,Nov-24,191525,2016-02-03 15:31:54:206
0.764,10.5692,-8.1,2.51,8.9,-3.28,1.15,4.33,6,-1.1718,-0.2727,0.4517,0,2,-33.06,25.5,83.25,-70.93,-127.26,0,1014.44,36.513,54.9745,-1.617195,316.13,NaN,,4.91,25.806452,181.5,Nov-24,192025,2016-02-03 15:31:54:706
6.0881,8.167,5.408,2.98,9.18,1.72,-2.86,4.93,-1.74,0.9811,-1.2709,-1.2655,0,1.25,-40,6.56,162.94,-69.45,-60.01,0,1014.42,38.864,54.9745,-1.617195,316.13,NaN,,4.91,25.806452,181.5,Nov-24,192525,2016-02-03 15:31:55:206
8.9238,9.5825,-4.1218,2.77,9.23,-1.81,5.62,8.02,7.07,0.8906,-0.8203,0.6839,0,0.19,-31.56,27.44,81.22,-68.59,-126.71,0,1014.43,34.293,54.97448,-1.617189,316.13,NaN,,5.24,29.032257,176,Oct-24,193025,2016-02-03 15:31:55:706
2.613,11.6925,6.6917,3.28,9.01,2.07,-0.59,6.39,4.04,0.1917,-0.0437,-0.2439,0,0.56,-36.31,8.88,159.22,-69.08,-60.58,0,1014.46,38.183,54.97448,-1.617189,316.13,NaN,,5.24,29.032257,176,Oct-24,193525,2016-02-03 15:31:56:206
8.5191,17.8237,2.201,3.12,9.05,-2.13,0.14,0.5,-1.11,1.4562,0.9598,0.0682,0,-1.62,-31.56,25.88,82.37,-67.34,-124.32,0,1014.47,35.405,54.974464,-1.617183,316.13,NaN,,5.52,29.032257,176.2,Dec-24,194025,2016-02-03 15:31:56:706
1.8753,10.9237,-0.5628,2.65,9.34,1.41,-1.79,-1.75,0.44,-0.0415,0.1566,0.277,0,-0.19,-35.56,6.94,133.53,-72.87,-102.4,0,1014.44,36.476,54.974464,-1.617183,316.13,NaN,,5.52,29.032257,176.2,Dec-24,194525,2016-02-03 15:31:57:206
4.7733,11.6039,-2.2705,3.21,9.06,-1.96,-1.36,-2.58,4.74,-1.3785,0.3206,-0.4602,0,-1.31,-32.69,18.88,118.04,-78.39,-77.72,0,1014.43,35.109,54.97445,-1.617184,316.13,NaN,,5.05,32.258064,186.7,Nov-24,195024,2016-02-03 15:31:57:705
0.5006,7.5539,0.0671,3.61,9.12,-0.1,-2.38,-2.09,1.2,-0.8895,-0.6722,0.3782,0,-1.62,-34.5,10.81,126.73,-70.19,-100.4,0,1014.43,33.382,54.97445,-1.617184,316.13,NaN,,5.05,32.258064,186.7,Nov-24,195525,2016-02-03 15:31:58:206
1.8442,5.9564,-2.11,2.72,9.4,-0.55,0.75,-3.18,1.5,2.0581,1.0099,0.5167,0,0.88,-34.12,15.06,117.37,-73.55,-101.43,0,1014.43,35.437,54.974426,-1.617185,319.35,NaN,,5.62,32.258064,190.3,Dec-24,196025,2016-02-03 15:31:58:706
3.3123,6.1768,0.5964,2.84,9.16,-2.04,-0.72,1.02,3.39,-0.9694,-1.2528,-0.1364,0,-0.56,-35.94,9.25,136.85,-69.11,-125.69,0,1014.43,36.283,54.974426,-1.617185,319.35,NaN,,5.62,32.258064,190.3,Dec-24,196524,2016-02-03 15:31:59:205
5.5684,8.5933,0.8742,2.78,9.37,-0.83,4.64,-0.53,2.44,-0.3164,-0.8458,0.2067,0,-0.19,-34.87,10,128.49,-72.8,-106.62,0,1014.43,36.781,54.974407,-1.617183,319.35,NaN,,6.37,32.258064,184.1,Dec-24,197024,2016-02-03 15:31:59:705
2.7016,11.065,-2.613,2.84,9.15,-2.1,1.52,1.92,3.96,-0.8927,-1.1473,-0.3249,0,-1.31,-33.06,18.88,91.93,-66.68,-133.23,0,1014.46,36.818,54.974407,-1.617183,319.35,NaN,,6.37,32.258064,184.1,Dec-24,197525,2016-02-03 15:32:00:206
8.5023,9.3765,2.4357,3.15,9.24,0.89,0.35,5.92,4.21,0.9673,-1.2826,-1.5446,0,-1.31,-34.87,6.13,153.86,-70.49,-74.22,0,1014.46,35.977,54.974392,-1.617177,319.35,NaN,,5.69,32.258064,171,Dec-24,198025,2016-02-03 15:32:00:706
5.978,9.5657,-0.558,2.68,9.08,-2.54,0.5,0.81,-3.83,0.4155,-0.7958,0.1736,0,-1.62,-33.37,22,77.44,-67.03,-136.38,0,1014.46,37.38,54.974392,-1.617177,319.35,NaN,,5.69,32.258064,171,Dec-24,198525,2016-02-03 15:32:01:206
-0.8263,14.6336,-0.3784,2.49,9.39,1.31,1.04,0.71,-0.78,-0.1289,0.7926,0.0021,0,-0.94,-39.62,0.31,177.49,-73.32,-62.25,0,1014.46,37.198,54.974377,-1.617168,319.35,NaN,,4.65,35.48387,161.6,Dec-24,199025,2016-02-03 15:32:01:706
-0.5988,9.3478,-3.9709,2.35,9.13,-2.69,2.67,0.7,0.25,0.032,3.0744,-0.1427,0,-1.31,-35.56,21.19,80.34,-68.63,-138.86,0,1014.47,37.353,54.974377,-1.617168,319.35,NaN,,4.65,35.48387,161.6,Dec-24,199525,2016-02-03 15:32:02:206
0.2419,13.9917,0.7928,2.09,9.49,1.34,-0.56,-1.38,-0.04,-0.5593,-0.9779,0.1619,0,0.19,-39.62,2.25,167.83,-76.33,-105.78,0,1014.47,36.323,54.97436,-1.617163,319.35,NaN,,5.78,35.48387,168.2,Nov-24,200025,2016-02-03 15:32:02:706
3.559,26.5895,-8.2652,2.17,9.04,-3.11,2.22,-3.01,6.22,-1.9622,0.2674,-0.5039,0,0.56,-34.87,22.75,83.46,-78.18,-117.59,0,1014.46,36.018,54.97436,-1.617163,319.35,NaN,,5.78,35.48387,168.2,Nov-24,200525,2016-02-03 15:32:03:206
1.3436,7.3982,0.5556,2.81,9.3,-1.33,-0.12,-3.35,3.48,-1.3763,0.5135,0.3409,0,2.75,-39.25,10,136.5,-71.52,-115.33,0,1014.46,34.989,54.974342,-1.617178,319.35,NaN,,6.93,29.032257,195.4,Nov-24,201025,2016-02-03 15:32:03:706
1.1041,3.1734,-2.3735,1.72,9.65,-0.41,-2.55,-0.62,1.07,3.1159,-0.5689,0.7318,0,2.38,-35.25,25.44,95.81,-79.62,-103.41,0,1014.44,36.231,54.974342,-1.617178,319.35,NaN,,6.93,29.032257,195.4,Nov-24,201525,2016-02-03 15:32:04:206
2.8261,5.408,0.103,2.74,9.15,-2.24,-0.1,-0.01,3.8,-1.6874,-1.2304,-0.5582,0,0.56,-33.75,18.13,99.21,-68.85,-129.27,0,1014.46,35.501,54.97433,-1.617197,319.35,NaN,,5.51,25.806452,210.4,Nov-24,202025,2016-02-03 15:32:04:706
1.2239,11.2135,-3.068,1.7,9.62,-0.85,0.38,1.44,-0.61,3.0701,-0.7989,0.9705,0,-0.94,-30.87,18.5,148.14,-74.44,-73.22,0,1014.46,34.487,54.97433,-1.617197,319.35,NaN,,5.51,25.806452,210.4,Nov-24,202525,2016-02-03 15:32:05:206
2.5579,9.1945,2.0046,2.41,9.18,-2.47,-0.04,2.54,-1.67,-1.9516,-0.6658,0.4943,0,-4.19,-28.69,20.44,74.38,-60.21,-147.32,0,1014.48,34.38,54.97432,-1.617213,319.35,NaN,,4.79,29.032257,223.7,Nov-24,203025,2016-02-03 15:32:05:706
9.0436,12.4397,2.213,2.49,9.37,1.49,0.12,5.25,2.95,0.832,-0.5145,-0.6264,0,-4.19,-32.31,5.75,135.95,-75.1,-63.13,0,1014.46,32.271,54.97432,-1.617213,319.35,NaN,,4.79,29.032257,223.7,Nov-24,203525,2016-02-03 15:32:06:206
7.1994,8.8376,-2.2465,2.39,9.23,-2.28,0.15,2.44,-3.23,0.3633,-0.9396,-0.457,0,-5.69,-30.12,21.19,55.36,-68.46,-136.46,0,1014.46,31.266,54.974304,-1.617222,322.58,NaN,,4.5,29.032257,209.6,Dec-24,204024,2016-02-03 15:32:06:705
0.2994,16.1975,2.9746,2.23,9.34,2.01,-1.15,3.51,-0.83,-0.5135,-0.0405,0.0597,0,-7.12,-35.25,2.25,138.74,-72.18,-47.97,0,1014.48,39.053,54.974304,-1.617222,322.58,NaN,,4.5,29.032257,209.6,Dec-24,204524,2016-02-03 15:32:07:205
2.7471,17.201,-3.0345,2.19,9.49,-1.16,1.17,5.75,-1.09,-1.42,0.0107,-0.5902,0,-5.31,-36.31,16.19,82.34,-71.18,-127.16,0,1014.46,38.76,54.974293,-1.617229,325.81,NaN,,4.79,25.806452,203.8,Dec-24,205025,2016-02-03 15:32:07:706
3.8847,6.457,-0.4215,2.16,9.56,0.36,2.43,-2.73,0.06,-2.0325,-0.2088,-0.4463,0,-6,-35.25,11.19,91.11,-73.19,-117.74,0,1014.5,36.214,54.974293,-1.617229,325.81,NaN,,4.79,25.806452,203.8,Dec-24,205525,2016-02-03 15:32:08:206
2.0956,3.8201,-1.0586,2.48,9.37,-1.49,0.38,-5.41,1.06,1.1068,0.6924,0.4368,0,-4.56,-34.12,19.25,117.81,-77.71,-66.26,0,1014.48,35.303,54.974285,-1.61725,319.35,NaN,,4.72,22.580645,205.3,Dec-24,206025,2016-02-03 15:32:08:706
3.0896,6.4474,-0.3281,2.93,9.28,-1.2,0.21,-0.02,7.29,-1.7492,-0.9502,-0.6764,0,-5.31,-37.75,16.19,99.46,-71.16,-112.27,0,1014.47,35.192,54.974285,-1.61725,319.35,NaN,,4.72,22.580645,205.3,Dec-24,206525,2016-02-03 15:32:09:206
2.316,11.7955,-1.2909,2.11,9.41,1.8,6.14,2.54,0.91,2.6344,1.1377,0.5486,0,-2.37,-40,5,161.7,-69.68,-50,0,1014.46,36.525,54.974277,-1.617276,316.13,NaN,,3.9,19.35484,209.4,Dec-24,207025,2016-02-03 15:32:09:706
2.7519,9.6232,2.0238,2.34,9.26,-2.24,5.7,2.02,2.48,-0.082,-0.718,-0.2898,0,-7.12,-33.37,22,81.75,-77.09,-99.72,0,1014.47,36.828,54.974277,-1.617276,316.13,NaN,,3.9,19.35484,209.4,Dec-24,207525,2016-02-03 15:32:10:206
2.5196,12.593,4.8308,2.29,9.37,1.77,-0.07,-0.45,-1.43,0.1182,0.0543,0.0959,0,-3.81,-39.25,5.38,121.67,-76.63,-70.69,0,1014.46,35.063,54.974274,-1.6173,316.13,NaN,,4.24,16.129032,213.9,Dec-24,208026,2016-02-03 15:32:10:707
1.7891,9.0053,-2.8668,2.91,9.09,-2.23,-0.43,-1.26,-0.63,-1.453,0.8874,-0.3079,0,-4.19,-35.25,18.13,71.74,-73.04,-121.86,0,1014.44,36.634,54.974274,-1.6173,316.13,NaN,,4.24,16.129032,213.9,Dec-24,208525,2016-02-03 15:32:11:206
1.0346,8.8065,-0.0192,2.55,9.42,0.97,-0.35,-1.62,-0.22,-0.7819,-0.0884,0.1704,0,-2.75,-38.5,12.31,116.61,-73.33,-102.95,0,1014.47,34.569,54.974262,-1.617322,312.9,NaN,,4.56,16.129032,205.7,Dec-24,209025,2016-02-03 15:32:11:706
1.8514,6.5959,0.2922,2.85,9.34,-0.93,-0.99,-2.32,-0.94,0.8053,-0.376,0.4048,0,-0.56,-35.94,19.25,131.04,-74.21,-68.24,0,1014.46,35.056,54.974262,-1.617322,312.9,NaN,,4.56,16.129032,205.7,Dec-24,209525,2016-02-03 15:32:12:206
8.2796,10.5668,-2.383,3.9,8.88,-1.45,-0.53,4.13,3.67,-0.3686,-0.016,0.1672,0,-7.87,-38.5,24.31,104.78,-71.1,-97.59,0,1014.47,34.942,54.97426,-1.617344,309.68,NaN,,3.82,12.903226,201.8,Dec-24,210025,2016-02-03 15:32:12:706
-1.3508,11.8985,-1.0993,2.78,8.95,2.88,1.28,1.71,-4.01,0.4975,-0.6679,-0.5593,0,-12.25,-41.81,4.56,136.65,-65.9,-43.99,0,1014.48,39.771,54.97426,-1.617344,309.68,NaN,,3.82,12.903226,201.8,Dec-24,210525,2016-02-03 15:32:13:206
3.9278,15.1437,-11.6733,2.75,9.38,-0.84,1.26,11.76,-3.15,-0.327,-0.5209,-0.4431,0,-11.12,-39.25,27,58.3,-69.88,-120.06,0,1014.5,36.565,54.974255,-1.617361,312.9,NaN,,4.29,12.903226,192.5,Dec-24,211025,2016-02-03 15:32:13:706
-0.5556,15.1126,0.4287,2.65,9.07,2.64,-3.15,5.92,-3.28,-0.5198,0.7627,0.1289,0,-7.5,-41.44,5,137.71,-72.29,-71.63,0,1014.5,36.568,54.974255,-1.617361,312.9,NaN,,4.29,12.903226,192.5,Dec-24,211525,2016-02-03 15:32:14:206
0.788,1.6909,-1.0346,2.55,9.45,-0.61,-2.32,-7.39,-0.78,0.4751,1.3188,0.229,0,-6.37,-37.75,25.81,86.9,-74.49,-103.45,0,1014.51,37.117,54.97424,-1.617371,316.13,NaN,,5.95,9.677419,185.6,Dec-24,212025,2016-02-03 15:32:14:706
1.073,12.2577,-0.103,2.69,8.95,2.98,-1.7,2.29,-1.61,-0.4186,0.5422,0.621,0,-4.19,-42.5,3.44,157.57,-72.5,-72.43,0,1014.5,34.461,54.97424,-1.617371,316.13,NaN,,5.95,9.677419,185.6,Dec-24,212526,2016-02-03 15:32:15:207
4.5266,8.7322,0.3545,2.85,9.34,-0.9,-1.88,-7.59,-1.27,-1.7044,-0.0927,-0.6328,0,-4.94,-39.62,26.25,141.83,-74.93,-57.49,0,1014.48,34.731,54.974228,-1.617382,316.13,NaN,,5.11,9.677419,189.4,Dec-24,213025,2016-02-03 15:32:15:706
1.4753,6.4019,-1.4705,3.37,9.15,1,-1.24,-3.37,-0.52,-1.6693,0.5486,0.3473,0,-3.81,-45.06,5,156.87,-68.98,-73.47,0,1014.48,35.219,54.974228,-1.617382,316.13,NaN,,5.11,9.677419,189.4,Dec-24,213525,2016-02-03 15:32:16:206
0.5413,3.0537,1.5759,3.41,9.1,-1.28,-2.14,-6.71,-0.74,-0.1907,0.7968,0.0192,0,-5.31,-34.5,27.75,115.6,-73.47,-71.82,0,1014.46,32.92,54.974213,-1.617395,319.35,NaN,,5.22,9.677419,196.2,Dec-24,214025,2016-02-03 15:32:16:706
1.734,5.9253,0.7017,3.32,9.13,1.34,-1.29,-3.06,-1.17,-1.4583,0.5603,0.2056,0,-2.75,-42.19,12.31,133.79,-67.66,-105.57,0,1014.47,35.285,54.974213,-1.617395,319.35,NaN,,5.22,9.677419,196.2,Dec-24,214525,2016-02-03 15:32:17:206
0.3473,3.4392,-2.7207,2.88,9.34,0.82,0.21,0.75,-4.57,-0.0117,1.0749,0.1513,0,-2.75,-41.06,19.63,142.9,-67.28,-55.43,0,1014.46,34.128,54.974197,-1.61741,322.58,NaN,,5.76,9.677419,204.1,Dec-24,215024,2016-02-03 15:32:17:705
2.189,3.3482,0.503,3.59,9.1,-0.64,-2.96,0.09,-2.1,-1.9484,2.2072,-0.196,0,-7.87,-39.62,22.75,86.16,-63.95,-128.31,0,1014.47,35.407,54.974197,-1.61741,322.58,NaN,,5.76,9.677419,204.1,Dec-24,215525,2016-02-03 15:32:18:206
0.6035,7.0581,-0.0407,2.77,9.34,1.17,-1.13,0.65,-2.9,2.4948,-0.3068,0.6605,0,-6,-40,30.06,149.7,-63.28,-49.05,0,1014.46,35.22,54.974182,-1.617426,329.03,NaN,,6.09,9.677419,206.3,Aug-21,216025,2016-02-03 15:32:18:706
-0.1317,10.7273,-0.4455,2.56,9.4,-1.12,-2.81,1.69,-1.95,-1.6107,-0.8661,0.1225,0,-2,-44.37,19.25,74.49,-66.86,-133.21,0,1014.5,35.286,54.974182,-1.617426,329.03,NaN,,6.09,9.677419,206.3,Aug-21,216525,2016-02-03 15:32:19:206
4.9074,9.7477,-1.9232,2.54,9.33,1.6,1.77,0.1,0.54,2.1444,1.9452,0.3441,0,4.94,-44.37,17.69,154.75,-72.16,-57.79,0,1014.47,39.863,54.974163,-1.61744,335.48,NaN,,5.72,9.677419,204.7,Aug-22,217025,2016-02-03 15:32:19:706
2.486,12.2577,4.0069,2.01,8.94,-3.5,3.18,1.97,0.15,-2.0208,-0.1598,0.1204,0,1.63,-40,25.44,80.43,-65.7,-150.13,0,1014.48,38.196,54.974163,-1.61744,335.48,NaN,,5.72,9.677419,204.7,Aug-22,217525,2016-02-03 15:32:20:206
11.5871,15.4407,3.2476,2.68,9.39,0.9,4.24,-0.41,2.88,0.653,-0.1385,-1.0418,0,2,-44,8.81,141.56,-74.37,-87.83,0,1014.46,42.944,54.974148,-1.617454,335.48,NaN,,4.47,9.677419,201.2,Sep-24,218025,2016-02-03 15:32:20:706
3.3937,13.8839,3.662,2.6,8.96,-3.01,0.12,0.31,-2.1,4.8001,2.9689,-0.2141,0,1.63,-38.5,25.81,88.69,-66.06,-139.18,0,1014.44,36.769,54.974148,-1.617454,335.48,NaN,,4.47,9.677419,201.2,Sep-24,218525,2016-02-03 15:32:21:206
9.1322,11.7452,3.7123,2.29,9.54,-0.09,-1.39,5.87,4.91,1.0312,-0.8224,-0.8618,0,4.19,-42.19,9.19,155.5,-77.45,-119.21,0,1014.46,43.57,54.974136,-1.617463,335.48,NaN,,4.47,9.677419,194.8,Sep-24,219025,2016-02-03 15:32:21:706
6.7875,8.44,0.2036,2.25,9.2,-2.54,2.97,7.97,5.82,1.2858,0.3249,-0.017,0,-0.19,-34.5,31.25,126.51,-57.92,-156.58,0,1014.46,39.872,54.974136,-1.617463,335.48,NaN,,4.47,9.677419,194.8,Sep-24,219525,2016-02-03 15:32:22:206
6.5097,10.0303,5.1182,2.82,9.35,0.92,-0.21,4.02,5.28,0.2642,-0.2173,-0.5454,0,-3.5,-43.62,6.5,137.68,-75.88,-92.4,0,1014.46,37.993,54.974117,-1.617473,335.48,NaN,,6.81,9.677419,197.2,Oct-21,220024,2016-02-03 15:32:22:705
0.0527,6.3444,-7.8868,2.48,8.91,-3.27,2.03,10.42,-2.54,1.5521,0.6669,-0.1811,0,-1.31,-38.87,28.13,84.27,-64.18,-136.33,0,1014.48,36.73,54.974117,-1.617473,335.48,NaN,,6.81,9.677419,197.2,Oct-21,220525,2016-02-03 15:32:23:206
-1.0634,15.2395,3.0872,2.64,9.32,1.51,-2.79,2.66,-2.51,0.0341,0.179,-0.4645,0,0.19,-45.44,7.25,156.13,-75.12,-65.37,0,1014.47,38.742,54.9741,-1.617485,335.48,NaN,,5.99,9.677419,204.7,Jul-20,221025,2016-02-03 15:32:23:706
2.0741,24.4148,-6.0498,2.71,9,-2.81,0.73,11.04,-8.05,1.4552,-0.4346,0.0085,0,-3.12,-35.56,29.31,69.46,-66.55,-136.04,0,1014.5,34.763,54.9741,-1.617485,335.48,NaN,,5.99,9.677419,204.7,Jul-20,221526,2016-02-03 15:32:24:207
-0.3233,15.1413,2.4741,2.58,9.37,1.34,-3.49,3.48,-1.63,0.1097,0.2429,-0.2706,0,-2.37,-42.19,8.06,133.3,-76.98,-89.74,0,1014.5,40.079,54.974094,-1.617497,319.35,NaN,,4.08,12.903226,216.4,Sep-23,222025,2016-02-03 15:32:24:706
3.6692,8.1598,0.5006,2.76,8.94,-2.94,-1.74,-4.68,3.94,-1.371,0.2152,-0.2631,0,-0.94,-38.87,23.5,74.68,-72.1,-133.92,0,1014.48,39.774,54.974094,-1.617497,319.35,NaN,,4.08,12.903226,216.4,Sep-23,222525,2016-02-03 15:32:25:206
2.122,9.0532,-0.0431,2.82,9.33,-1.12,-1.94,-1.98,-0.26,-1.8014,0.3196,0.3111,0,-2.75,-41.81,8.81,134.69,-71.98,-111.66,0,1014.5,36.463,54.974094,-1.61751,319.35,NaN,,3.95,12.903226,230,Sep-23,223025,2016-02-03 15:32:25:706
1.346,4.6679,3.4345,2.41,8.92,-3.28,-3,-4.01,6.95,-0.9172,2.9071,-0.783,0,-0.56,-34.5,30.44,93.29,-79.04,-97.39,0,1014.48,37.252,54.974094,-1.61751,319.35,NaN,,3.95,12.903226,230,Sep-23,223525,2016-02-03 15:32:26:206
1.2047,6.3181,-0.7353,2.97,9.33,0.55,-2.03,-0.47,-0.34,-0.1598,-0.2471,0.3665,0,-1.31,-37.06,10,140.6,-72.06,-79.51,0,1014.51,38.584,54.974094,-1.61751,319.35,NaN,,3.95,12.903226,230,Nov-22,224025,2016-02-03 15:32:26:706
-1.8561,3.3363,1.9951,3.73,8.5,-3.17,-2.51,-7.29,-0.99,0.5198,0.7713,0.6274,0,-7.87,-20.62,32.38,90.43,-75.1,-92.73,0,1014.5,39.185,54.974094,-1.61751,319.35,NaN,,3.95,12.903226,230,Nov-22,224525,2016-02-03 15:32:27:206
1.8777,6.2821,0.9365,4.33,8.8,-0.06,-2.25,-3.3,-1.99,-1.6192,1.5691,0.196,0,-3.81,-32.31,18.06,119.9,-63.8,-90.79,0,1014.5,35.854,54.9741,-1.617527,316.13,NaN,,2.71,16.129032,225,Sep-21,225025,2016-02-03 15:32:27:706
0.297,3.4464,-1.3292,3.08,9.29,0.54,-0.54,1.99,-3.42,1.5574,0.6977,0.4538,0,-0.94,-28.69,25.44,155.97,-59.51,-52.92,0,1014.48,35.795,54.9741,-1.617527,316.13,NaN,,2.71,16.129032,225,Sep-21,225525,2016-02-03 15:32:28:206
1.5999,5.978,1.5256,3.21,9.13,-1.57,-1.99,1.52,-3.56,-2.2477,-0.2003,-0.3728,0,-4.94,-33.37,18.5,87.14,-68.8,-107.06,0,1014.48,35.634,54.97409,-1.617536,316.13,NaN,,5.42,19.35484,205.6,Aug-22,226025,2016-02-03 15:32:28:706
-1.4442,7.6856,-0.8766,2.32,9.36,1.79,-0.79,0.01,-1.99,2.0432,0.5113,0.539,0,3.44,-35.25,13.81,161.78,-63.05,-48.92,0,1014.47,34.338,54.97409,-1.617536,316.13,NaN,,5.42,19.35484,205.6,Aug-22,226525,2016-02-03 15:32:29:206
2.4884,5.9277,2.395,2.07,9.57,0.52,7.36,4.95,0.87,-1.0109,-0.2663,0.1257,0,-0.19,-34.87,21.56,106.92,-73.21,-108.31,0,1014.51,36.062,54.974083,-1.617544,319.35,NaN,,2.93,22.580645,212.5,Nov-23,227025,2016-02-03 15:32:29:706
10.5908,16.8274,2.2369,2.21,9.22,2.49,1.84,0.14,0.57,1.0397,-0.7276,-1.2709,0,3.44,-37.75,13.06,167.52,-62.53,-40.7,0,1014.51,37.346,54.974083,-1.617544,319.35,NaN,,2.93,22.580645,212.5,Nov-23,227525,2016-02-03 15:32:30:206
4.6847,15.7568,3.2836,2.56,9.33,-1.59,3.02,-1.69,1.5,0.1172,-0.1491,0.4091,0,-2.75,-28.69,28.5,70.7,-72.1,-121.84,0,1014.52,37.832,54.97408,-1.617551,319.35,NaN,,2.72,22.580645,216.9,Nov-23,228025,2016-02-03 15:32:30:706
11.7212,11.5416,-0.2203,3.26,8.82,2.79,4.22,3.01,0.73,0.734,-0.8256,-0.2333,0,1.25,-37.06,11.13,163.8,-60.67,-46.94,0,1014.55,33.748,54.97408,-1.617551,319.35,NaN,,2.72,22.580645,216.9,Nov-23,228526,2016-02-03 15:32:31:207
8.8065,19.9817,5.7816,2.74,9.28,-1.62,2,0.46,0.81,-1.2304,-0.0767,0.3931,0,-1.62,-26.81,29.31,113.5,-74.95,-74.98,0,1014.52,34.985,54.97408,-1.617563,316.13,NaN,,4.22,22.580645,245.7,Jul-18,229025,2016-02-03 15:32:31:706
2.2441,14.2144,5.681,3.27,8.88,2.58,-5.52,6.58,-4.6,1.0461,-0.9108,-0.5827,0,-3.81,-38.87,8.81,153.04,-64.87,-51.73,0,1014.54,39.457,54.97408,-1.617563,316.13,NaN,,4.22,22.580645,245.7,Jul-18,229525,2016-02-03 15:32:32:206
3.2596,14.6216,-2.9076,2.91,9.36,-0.31,-1.77,3.86,-13.19,1.9196,-1.5361,0.2152,0,-2.75,-31.19,25.44,85.38,-67.86,-118.09,0,1014.59,38.183,54.974075,-1.617579,316.13,NaN,,3.78,25.806452,260.4,Jul-18,230025,2016-02-03 15:32:32:706
1.1304,15.3066,3.4392,3.85,8.67,2.49,-5.52,4.72,-4.51,0.3185,-0.0075,-0.3111,0,-7.12,-37.44,9.56,143.23,-67.6,-61.03,0,1014.54,38.01,54.974075,-1.617579,316.13,NaN,,3.78,25.806452,260.4,Jul-18,230525,2016-02-03 15:32:33:206
2.7854,11.6997,1.0586,3.56,9.13,0.46,-3.36,-4.77,-2.6,3.7561,2.2797,0.1236,0,-6,-35.94,20.38,115.93,-68.54,-82.64,0,1014.57,37.602,54.974075,-1.617591,312.9,NaN,,2.2,32.258064,271.6,Oct-23,231025,2016-02-03 15:32:33:706
0.9149,7.8676,0.5221,4.11,8.45,2.79,-1.28,1.3,-4.78,-0.3079,0.4218,0.2866,0,-5.69,-42.87,8.06,143.56,-67.59,-88.62,0,1014.56,35.361,54.974075,-1.617591,312.9,NaN,,2.2,32.258064,271.6,Oct-23,231526,2016-02-03 15:32:34:207
4.3134,8.4999,4.347,3.63,9.11,0.22,-3.16,-5.84,-4.02,-1.0365,-1.7055,-0.4314,0,-5.31,-37.44,22.69,114.04,-68.24,-86.53,0,1014.52,36.432,54.97407,-1.617594,312.9,NaN,,2.6,25.806452,255.6,Nov-21,232025,2016-02-03 15:32:34:706
1.1352,6.7037,0.6443,4.26,8.68,1.63,-2.66,-2.56,-3.42,-1.4488,-0.7073,0.5167,0,-5.69,-39.62,14.19,130.97,-63.57,-92.23,0,1014.55,33.338,54.97407,-1.617594,312.9,NaN,,2.6,25.806452,255.6,Nov-21,232525,2016-02-03 15:32:35:206
0.867,5.2571,-1.6981,3.93,8.96,0.65,-4.3,-6.36,-2.88,1.6213,0.1854,0.1726,0,-4.19,-36.31,23.06,140.55,-64.68,-60.56,0,1014.55,36.159,54.974064,-1.6176,312.9,NaN,,2.72,29.032257,219.6,Jul-18,233026,2016-02-03 15:32:35:707
2.0453,7.233,-0.2371,3.45,9.06,1.5,-2.11,-0.98,-3.66,-1.4839,-1.3348,-0.3888,0,-4.56,-39.62,12.25,126.87,-68.32,-100.66,0,1014.56,33.24,54.974064,-1.6176,312.9,NaN,,2.72,29.032257,219.6,Jul-18,233525,2016-02-03 15:32:36:206
-1.837,4.3853,-3.1662,3.36,9.13,1.21,1.68,0.92,-2.39,1.7076,0.6008,0.2312,0,-3.81,-37.06,20.75,128.18,-68.64,-70.2,0,1014.57,34.614,54.974052,-1.6176,312.9,NaN,,1.41,32.258064,185.7,Aug-21,234026,2016-02-03 15:32:36:707
1.5304,8.7634,-9.2256,3.62,9.09,-0.62,-3.19,0.23,-9.98,-0.8171,-1.355,-0.147,0,-6,-37.06,17.31,88.12,-67.26,-113.32,0,1014.57,37.691,54.974052,-1.6176,312.9,NaN,,1.41,32.258064,185.7,Aug-21,234525,2016-02-03 15:32:37:206
-2.3327,4.5266,0.7305,2.67,9.33,1.44,-0.89,-0.13,-4.6,1.6639,1.1025,0.3601,0,2.38,-37.44,11.5,156.01,-58.09,-59.28,0,1014.57,36.925,54.974037,-1.617598,312.9,NaN,,3.79,32.258064,196.5,Jul-20,235025,2016-02-03 15:32:37:706
0.3521,9.9872,-1.6095,3.02,9.25,-1.22,-4.02,1.27,-2.14,-1.3944,-0.245,-0.3931,0,-1.62,-34.87,22.31,94.16,-67.1,-122.15,0,1014.6,38.517,54.974037,-1.617598,312.9,NaN,,3.79,32.258064,196.5,Jul-20,235524,2016-02-03 15:32:38:205
-1.8945,5.3385,0.8454,3.03,9.15,1.8,-3.58,1.71,-3.59,1.7417,2.4991,0.588,0,2,-38.87,16.94,150.19,-68.93,-59.29,0,1014.57,35.314,54.974026,-1.617601,312.9,NaN,,3.98,38.709675,201,Oct-22,236025,2016-02-03 15:32:38:706
2.9171,12.1811,4.1769,3.14,8.95,-2.49,1.3,-1.19,-0.35,-1.8227,1.4104,0.2482,0,-2.37,-34.87,24.63,85.93,-65.88,-128.41,0,1014.61,36.293,54.974026,-1.617601,312.9,NaN,,3.98,38.709675,201,Oct-22,236525,2016-02-03 15:32:39:206
10.2986,12.5188,2.7543,2.87,9.2,1.78,1.6,1.51,-0.3,0.6487,-0.3292,-0.1651,0,2.38,-40.31,12.25,159.45,-66.48,-56.15,0,1014.56,38.079,54.974003,-1.617606,312.9,NaN,,5.16,41.935486,203.4,Nov-22,237025,2016-02-03 15:32:39:706
2.9555,13.5486,1.4705,3.05,9.08,-2.09,0.56,0.44,1.23,-1.0855,-1.208,0.9001,0,-4.94,-30.12,31.19,95.4,-77.38,-87.59,0,1014.57,39.603,54.974003,-1.617606,312.9,NaN,,5.16,41.935486,203.4,Nov-22,237525,2016-02-03 15:32:40:206
7.997,10.7225,5.6139,3.36,8.86,2.55,-1.1,7.37,1.78,0.5081,-0.5529,-0.489,0,-4.94,-40.31,8,125.18,-70.21,-89.14,0,1014.57,41.683,54.973988,-1.617608,312.9,NaN,,4.04,41.935486,194.3,Nov-22,238025,2016-02-03 15:32:40:706
6.2199,6.833,-0.7233,2.94,9.36,0.05,-2.21,3.26,3.4,0.702,0.1811,-0.686,0,-4.19,-33.37,28.5,102.69,-72.56,-89.03,0,1014.59,45.974,54.973988,-1.617608,312.9,NaN,,4.04,41.935486,194.3,Nov-22,238525,2016-02-03 15:32:41:206
-1.231,14.1234,-1.5592,3.34,8.84,2.62,-1.97,7.52,0.88,-0.1971,0.1875,0.0884,0,-4.56,-40.31,6.13,155.47,-64.35,-51.89,0,1014.59,43.11,54.973972,-1.617607,312.9,NaN,,4.79,38.709675,185,Nov-22,239025,2016-02-03 15:32:41:706
2.4118,25.0591,-7.803,2.55,9.47,-0.28,1.32,-0.03,-1.07,-3.3375,-0.881,-0.5859,0,-3.12,-37.75,23.5,78.48,-68.61,-132.17,0,1014.63,36.785,54.973972,-1.617607,312.9,NaN,,4.79,38.709675,185,Nov-22,239525,2016-02-03 15:32:42:206
0.2515,11.8937,0.0216,3.05,9.1,2.04,-1.08,0.5,-2.37,-0.7947,-0.6871,0.3675,0,-3.81,-41.44,7.25,142.38,-73.28,-71.82,0,1014.6,39.346,54.973957,-1.617604,312.9,NaN,,4.57,35.48387,182.7,Nov-22,240025,2016-02-03 15:32:42:706
2.4022,22.6545,-7.221,2.35,9.17,-2.56,0.24,0.16,0.88,-1.6405,-0.0032,-0.3366,0,-1.62,-36.69,22.31,112.19,-78.77,-78.22,0,1014.59,40.134,54.973957,-1.617604,312.9,NaN,,4.57,35.48387,182.7,Nov-22,240525,2016-02-03 15:32:43:206
2.0118,4.4332,1.2981,3.05,9.07,-2.15,0.48,-4.35,-2.02,-1.5425,-0.0618,0.1577,0,-2,-39.62,15,117.23,-67.64,-125.18,0,1014.57,38.293,54.97393,-1.617599,303.23,NaN,,5.38,32.258064,182.7,13 / 22,241025,2016-02-03 15:32:43:706
1.3005,2.9315,-2.0238,2.56,9.26,-1.98,-2.76,-5.31,-1.33,0.9832,0.98,0.5113,0,-5.31,-35.25,28.5,104.41,-77.58,-90.81,0,1014.57,44.862,54.97393,-1.617599,303.23,NaN,,5.38,32.258064,182.7,13 / 22,241526,2016-02-03 15:32:44:207
2.0358,7.4892,1.0586,3.26,9.15,-1.34,-0.39,-4.74,0.95,-1.9846,-0.179,-0.8085,0,-6,-43.62,13.81,118,-68.93,-112.34,0,1014.64,35.859,54.973915,-1.617594,303.23,NaN,,3.91,25.806452,178.8,13 / 22,242025,2016-02-03 15:32:44:706
-0.1964,2.3471,-1.9759,2.55,9.32,-1.68,-2.95,-6.85,-1.18,2.5204,-0.3803,0.7127,0,-4.56,-39.62,24.63,142.88,-70.82,-66.78,0,1014.65,53.688,54.973915,-1.617594,303.23,NaN,,3.91,25.806452,178.8,13 / 22,242525,2016-02-03 15:32:45:206
2.316,4.4571,0.4383,2.97,9.26,-1.3,-0.94,-3.98,0.8,-1.7183,-0.0447,-0.424,0,-6,-37.44,21.56,58.21,-66.43,-137.69,0,1014.64,44.84,54.973896,-1.617588,300,NaN,,4.96,22.580645,178.5,13 / 22,243025,2016-02-03 15:32:45:706
-2.2298,6.2462,0.6993,1.71,9.65,-0.38,7,0.05,0.78,0.2993,0.5955,0.457,0,3.06,-41.44,13.44,145.57,-74.23,-71.63,0,1014.63,41.887,54.973896,-1.617588,300,NaN,,4.96,22.580645,178.5,13 / 22,243525,2016-02-03 15:32:46:206
2.8525,5.02,0.2419,3.66,8.37,-3.57,-0.44,3.59,8.12,-1.3071,-0.5465,-0.5774,0,-7.12,-39.25,21.94,105.17,-58.58,-134.29,0,1014.63,36.926,54.973873,-1.617579,296.77,NaN,,3.47,19.35484,180.4,13 / 22,244025,2016-02-03 15:32:46:706
7.5946,11.2949,2.0861,1.45,9.7,-0.19,3.15,-1.52,4.16,0.6541,-0.9342,-2.0197,0,-1.31,-42.5,9.94,144.07,-71.68,-80.48,0,1014.64,35.838,54.973873,-1.617579,296.77,NaN,,3.47,19.35484,180.4,13 / 22,244525,2016-02-03 15:32:47:206
3.8632,13.4624,2.4022,3.43,8.57,-3.3,4.14,3.32,7.9,-0.5955,-0.0043,0.2589,0,-2.37,-38.87,27.31,94.15,-60.95,-133.89,0,1014.65,38.895,54.97385,-1.617573,325.81,NaN,,5.21,19.35484,193.6,13 / 22,245025,2016-02-03 15:32:47:706
10.1645,15.1988,3.4752,2.88,9.37,-0.12,5.69,2.01,5.34,1.0876,-0.7734,-0.9971,0,0.19,-42.87,11.13,138,-72.9,-92.39,0,1014.63,36.654,54.97385,-1.617573,325.81,NaN,,5.21,19.35484,193.6,13 / 22,245525,2016-02-03 15:32:48:206
3.1135,14.5497,4.1578,2.66,8.43,-4.25,0.46,2.55,-10.44,-1.1281,-0.3846,0.2003,0,-4.94,-32.31,31.56,47.27,-62.3,-148.37,0,1014.72,37.802,54.973827,-1.617571,319.35,NaN,,4.93,16.129032,195.1,13 / 22,246025,2016-02-03 15:32:48:706
7.621,11.2853,4.2224,2.95,9.35,-0.19,-4.2,4.89,-0.84,0.8448,-0.8266,-0.6573,0,-5.31,-42.19,6.06,145.81,-71.88,-100.39,0,1014.7,43.197,54.973827,-1.617571,319.35,NaN,,4.93,16.129032,195.1,13 / 22,246525,2016-02-03 15:32:49:206
0.4598,5.8678,-9.7501,2.87,8.58,-3.77,-1.37,-2.05,-8.81,0.9534,-0.8788,0.8437,0,-2.37,-35.25,31.56,69.26,-61.95,-141.96,0,1014.69,39.845,54.97381,-1.617567,325.81,NaN,,3.93,16.129032,192.7,13 / 22,247025,2016-02-03 15:32:49:706
2.8285,10.1716,-0.7616,3.1,9.23,-1.17,-1.96,-2.93,0.84,-0.2589,0.0352,0.1896,0,-1.62,-42.87,6.06,155.51,-70.25,-110.68,0,1014.67,41.539,54.97381,-1.617567,325.81,NaN,,3.93,16.129032,192.7,13 / 22,247525,2016-02-03 15:32:50:206
3.6883,14.545,-2.3447,3.24,8.86,-2.69,-1.52,-3.73,-9.38,-0.049,-1.6299,0.4772,0,1.25,-39.62,23.06,115.32,-56.96,-142.83,0,1014.67,38.593,54.97379,-1.617569,322.58,NaN,,5.29,16.129032,195.9,13 / 22,248025,2016-02-03 15:32:50:706
1.7124,11.659,-0.0862,3.44,9.05,1.58,-2.75,-2,-1.1,-0.1896,-0.1427,0.1289,0,-2.37,-43.62,5.69,159.32,-66.32,-95.39,0,1014.67,41.656,54.97379,-1.617569,322.58,NaN,,5.29,16.129032,195.9,13 / 22,248525,2016-02-03 15:32:51:206
5.2427,24.3382,-10.859,3.44,8.73,-2.86,-3.45,-3.21,5.65,5.4052,3.5793,-0.2759,0,-0.56,-38.5,27.31,101.99,-71.9,-101.94,0,1014.68,54.014,54.973766,-1.617576,319.35,NaN,,4.74,19.35484,207.7,13 / 22,249025,2016-02-03 15:32:51:706
0.6395,8.088,0.297,3.67,9.03,1.05,-2.74,-1.53,-0.66,-0.2727,-0.4059,0.2812,0,-1.62,-42.87,3.38,170.81,-64.52,-99.42,0,1014.68,39.347,54.973766,-1.617576,319.35,NaN,,4.74,19.35484,207.7,13 / 22,249525,2016-02-03 15:32:52:206
-1.4274,4.5074,0.661,3.29,9.2,-0.86,-3.61,-6.12,-0.49,1.3753,-1.045,0.6104,0,-0.94,-38.87,24.25,132.47,-71.42,-84.13,0,1014.67,33.713,54.97375,-1.617583,312.9,NaN,,5.13,19.35484,212.3,13 / 22,250025,2016-02-03 15:32:52:706
0.4551,6.2031,-0.9221,3.89,8.97,-0.81,-0.35,-3.57,0.24,-1.7417,0.4048,0.1917,0,0.19,-45.44,8.38,129.45,-60.91,-124.92,0,1014.68,33.745,54.97375,-1.617583,312.9,NaN,,5.13,19.35484,212.3,13 / 22,250525,2016-02-03 15:32:53:206
-0.7353,4.0069,1.9735,3.52,8.56,-3.25,-3.62,-4.57,2.46,1.8408,-0.6701,0.7819,0,2,-40.69,22.69,164.86,-65.9,-74.05,0,1014.69,39.34,54.973736,-1.617589,312.9,NaN,,3.69,19.35484,212.9,13 / 22,251025,2016-02-03 15:32:53:706
2.0693,8.1838,-0.9867,4.33,8.4,-2.62,-1.83,3.74,7.01,-2.4682,0.9268,-0.3153,0,-2.37,-40.31,21.94,101.87,-60.56,-120.82,0,1014.68,53.063,54.973736,-1.617589,312.9,NaN,,3.69,19.35484,212.9,13 / 22,251525,2016-02-03 15:32:54:206
-0.0671,1.4155,-2.1627,3.31,9.23,0.01,-3.96,3.84,-1.61,1.5574,1.2314,0.6285,0,2.75,-45.81,12.69,165.79,-62.16,-72.59,0,1014.7,34.886,54.973717,-1.61759,325.81,NaN,,5.49,19.35484,201,Dec-19,252025,2016-02-03 15:32:54:706
2.486,3.3913,-0.6706,4.4,8.59,-1.72,-2.95,-2.47,3.76,-2.6142,2.8996,0.0554,0,-1.62,-43.62,10.69,149.35,-61.19,-111.35,0,1014.7,33.01,54.973717,-1.61759,325.81,NaN,,5.49,19.35484,201,Dec-19,252525,2016-02-03 15:32:55:206
-0.6275,1.5328,0.0048,2.69,9.4,-0.76,7.29,5.8,3.72,1.0812,2.1785,0.5241,0,4.19,-40.69,12.63,131.4,-73.44,-105.78,0,1014.72,36.609,54.973698,-1.61759,325.81,NaN,,5.19,22.580645,201,Dec-19,253025,2016-02-03 15:32:55:706
1.3747,8.3179,3.3075,4.53,8.34,-2.48,0.49,7.39,7.14,-1.388,2.041,0.3015,0,-1.31,-41.81,16.5,144.68,-50.81,-129.96,0,1014.72,36.799,54.973698,-1.61759,325.81,NaN,,5.19,22.580645,201,Dec-19,253525,2016-02-03 15:32:56:206
6.1241,9.4939,5.8199,4.31,8.74,1.1,1.69,0.73,5.06,1.3156,-1.5446,-1.3465,0,1.63,-42.5,4.56,170.44,-60.58,-69.83,0,1014.7,39.837,54.97368,-1.617584,325.81,NaN,,4.74,22.580645,183.5,Jun-19,254025,2016-02-03 15:32:56:706
0.8526,7.712,-7.4629,4.26,8.57,-2.15,-0.82,3.43,6.87,-1.2506,-0.2067,-0.1886,0,-0.56,-38.5,25.38,113.39,-56.1,-125.03,0,1014.73,38.245,54.97368,-1.617584,325.81,NaN,,4.74,22.580645,183.5,Jun-19,254524,2016-02-03 15:32:57:205
9.5442,13.7474,1.3364,3.2,9.24,0.8,6.71,4.49,1.19,1.4679,-1.6117,-1.4168,0,1.63,-40.31,4.19,173.24,-64.01,-60.16,0,1014.72,35.719,54.97366,-1.617584,332.26,NaN,,5.73,22.580645,184.3,Oct-22,255025,2016-02-03 15:32:57:706
3.638,13.5606,3.7985,4.02,8.89,-0.98,-5.04,-2.15,-8.77,-0.9161,0.0064,0.3121,0,-0.19,-35.56,22.69,105.93,-62.47,-123.76,0,1014.72,33.115,54.97366,-1.617584,332.26,NaN,,5.73,22.580645,184.3,Oct-22,255525,2016-02-03 15:32:58:206
3.6883,9.8675,5.4726,4.24,8.36,2.89,-4.16,7.7,-0.05,1.1952,-0.7574,-1.2943,0,0.56,-42.19,-0.87,183.58,-58.46,-55.72,0,1014.73,41.894,54.97364,-1.61759,329.03,NaN,,5.72,25.806452,184.3,Oct-22,256025,2016-02-03 15:32:58:706
6.6007,17.7591,5.5038,4.52,8.64,-1.08,-3.37,0.42,-6.3,5.5287,6.561,0.5518,0,-3.5,-32.31,22.69,101.85,-60.52,-118.32,0,1014.76,47.518,54.97364,-1.61759,329.03,NaN,,5.72,25.806452,184.3,Oct-22,256524,2016-02-03 15:32:59:205
-0.7904,16.2119,0.9748,4.24,8.31,3,-3.58,-0.04,-1.66,-0.392,0.3515,0.2226,0,-7.12,-38.87,4.13,157.66,-57.99,-54.72,0,1014.74,39.307,54.973625,-1.617596,325.81,NaN,,5.8,19.35484,210.8,Jul-19,257025,2016-02-03 15:32:59:706
4.9409,18.8847,-7.2617,4.47,8.58,-1.6,-5.45,-3.37,4.34,-3.3108,-0.0256,-0.947,0,-2,-33.75,27.31,150.78,-56.09,-49.82,0,1014.77,42.808,54.973625,-1.617596,325.81,NaN,,5.8,19.35484,210.8,Jul-19,257525,2016-02-03 15:33:00:206
0.7975,7.9251,0.5868,4.17,8.43,2.76,-4.5,-1.01,-3.45,-0.2834,-1.0408,0.1768,0,-1.31,-40.31,3.75,169.79,-59.32,-56.5,0,1014.76,45.682,54.973614,-1.617605,322.58,NaN,,4.64,19.35484,208.1,Aug-21,258026,2016-02-03 15:33:00:707
2.1747,8.1766,2.2777,4.57,8.67,-0.23,-4.53,-3.28,1.4,-0.8458,-0.832,-0.5486,0,0.19,-36.69,16.5,144.77,-63.55,-67.66,0,1014.76,43.775,54.973614,-1.617605,322.58,NaN,,4.64,19.35484,208.1,Aug-21,258525,2016-02-03 15:33:01:206
-0.8981,5.9181,-1.7484,3.66,8.83,2.2,-4.7,-2.44,-2.78,-1.2613,-0.0629,0.7904,0,3.06,-41.44,4.56,168.08,-66.93,-76.76,0,1014.77,39.185,54.9736,-1.617611,332.26,NaN,,4.64,25.806452,184,Aug-21,259025,2016-02-03 15:33:01:706
-0.194,5.4056,4.1482,1.4,7.76,5.82,-2.03,-0.38,-6.57,-3.2054,-0.6935,-0.8554,13,14.75,-33.75,-18.94,265.04,-68.31,-23.24,0,1014.78,38.527,54.9736,-1.617611,332.26,NaN,,4.64,25.806452,184,Aug-21,259525,2016-02-03 15:33:02:206
0.2419,2.5794,5.6978,-5.91,1.64,7.65,6.12,2.65,1.69,-1.9643,1.6916,2.2754,320,18.88,-10.19,-22.19,84.56,-19.48,45.66,2,1014.77,38.028,54.97358,-1.617616,329.03,NaN,,6.09,22.580645,198.9,Oct-21,260026,2016-02-03 15:33:02:707
-4.3038,3.7865,4.1027,-5.98,1.84,7.55,-1.95,0.21,4.33,2.0719,0.0085,-0.604,353,16.69,-12.37,-24.12,156.28,-12.97,39.69,2,1014.78,38.395,54.97358,-1.617616,329.03,NaN,,6.09,22.580645,198.9,Oct-21,260525,2016-02-03 15:33:03:206
-0.1174,3.4728,6.6797,-5.24,2.86,7.78,-0.16,-0.27,-1.21,-1.1686,-0.7649,1.1473,370,13.06,-14.19,-31.81,116.47,-16.96,33.96,2,1014.8,37.273,54.97356,-1.617618,329.03,NaN,,5.04,22.580645,197.1,Sep-20,261025,2016-02-03 15:33:03:706
0.491,2.0837,7.7838,-4.7,2.88,8.11,4.94,0.61,-0.79,-0.3025,-0.6349,-0.0565,341,15.56,-7.25,-33,161.23,-20.48,35.25,2,1014.8,37.687,54.97356,-1.617618,329.03,NaN,,5.04,22.580645,197.1,Sep-20,261525,2016-02-03 15:33:04:206
1.6358,6.0714,11.8146,3.07,2.7,8.91,0.22,4.18,3.06,1.5595,-1.0599,-2.0155,383,-14.31,-11.62,-37.62,102.18,-14.29,-7.93,2,1014.8,38.987,54.973545,-1.617621,325.81,NaN,,4.27,22.580645,195.2,Sep-21,262025,2016-02-03 15:33:04:706
2.1675,9.1274,8.9622,2.38,8.9,3.37,2.07,0.21,-2.19,-2.1902,2.4757,-0.4261,391,-1.56,-31,-10.69,189.75,-45.69,-27.28,2,1014.77,38.617,54.973545,-1.617621,325.81,NaN,,4.27,22.580645,195.2,Sep-21,262525,2016-02-03 15:33:05:206
-3.0201,5.4223,11.7332,-1.29,5.39,8.09,-1.48,3.26,0.15,-0.4208,-0.1087,0.1204,325,6.44,-22.25,-21.06,204.19,-31.96,7.39,2,1014.76,40.755,54.97352,-1.617625,335.48,NaN,,5.15,22.580645,196.4,Oct-21,263025,2016-02-03 15:33:05:706
2.9387,2.6992,14.054,0.11,2.9,9.37,1.53,0.12,3.62,-1.8514,-0.5113,0.5571,189,1,-16.75,-28.75,186.83,-24.53,7.09,0,1014.76,43.095,54.97352,-1.617625,335.48,NaN,,5.15,22.580645,196.4,Oct-21,263526,2016-02-03 15:33:06:207
3.0728,4.7254,11.726,1.65,-0.05,9.67,0.48,3.36,-0.03,0.555,0.4602,1.3518,410,-12.5,-4.37,-38.37,127.69,0.29,-9.68,2,1014.78,43.326,54.973503,-1.61764,335.48,NaN,,4.25,22.580645,197.8,Nov-21,264025,2016-02-03 15:33:06:706
1.5376,1.2789,12.4349,2.4,0.96,9.46,-0.19,2.21,-1.69,-0.2226,0.2599,-0.4783,403,-11.44,-13.5,-36.44,168.94,-5.62,-14.24,2,1014.8,40.743,54.973503,-1.61764,335.48,NaN,,4.25,22.580645,197.8,Nov-21,264525,2016-02-03 15:33:07:206
-0.9125,5.0056,9.7693,1.85,2.05,9.41,-0.13,2.76,-0.17,0.0778,0.3377,-0.8554,388,-5.56,-13.12,-34.94,189.28,-12.07,-11.12,2,1014.8,38.789,54.97349,-1.617651,335.48,NaN,,3.95,25.806452,200.4,Oct-20,265024,2016-02-03 15:33:07:705
1.7292,2.0837,5.6283,2.01,3.19,9.05,-0.51,0.23,-3.67,0.8458,-1.1068,0.6935,354,-7.06,-13.87,-33.37,157.55,-17.2,-9.58,2,1014.8,38.142,54.97349,-1.617651,335.48,NaN,,3.95,25.806452,200.4,Oct-20,265525,2016-02-03 15:33:08:206
6.0354,-0.5341,1.7148,9.52,-1.8,1.55,-0.59,2.31,-2.1,-0.8203,-1.6426,-0.1875,411,-57.75,1.5,-0.25,120.93,11.41,-74.81,2,1014.78,38.346,54.97348,-1.617658,335.48,NaN,,3.2,22.580645,191.3,Aug-20,266024,2016-02-03 15:33:08:705
3.2596,3.0752,1.3652,8.42,4.96,-0.82,-5.95,-1.04,-4.54,1.4264,0.7233,-3.4099,38,-18.69,-29.19,11.69,150.65,-17.38,-89.45,0,1014.8,38.987,54.97348,-1.617658,335.48,NaN,,3.2,22.580645,191.3,Aug-20,266525,2016-02-03 15:33:09:206
0.1748,4.5553,3.9111,6.4,7.37,-0.95,1.71,4.1,3.49,-0.0671,0.621,-0.4538,22,-8.5,-28.44,5.88,158.14,-48.72,-98.44,0,1014.8,38.377,54.973473,-1.617657,335.48,NaN,,2.8,22.580645,179.3,Dec-21,267025,2016-02-03 15:33:09:706
4.8715,4.5362,2.5603,5.16,8.21,-1.47,5.38,0.35,-2.65,-2.4075,0.425,-0.4357,5,-9.94,-22.94,12.44,101.43,-56.84,-105.9,0,1014.78,38.75,54.973473,-1.617657,335.48,NaN,,2.8,22.580645,179.3,Dec-21,267526,2016-02-03 15:33:10:207
1.5041,7.8916,-0.4215,5.66,7.98,0.63,4.87,-1.7,-2.44,1.7843,-0.9779,0.4059,5,-12.87,-19.69,11.69,109.71,-53.06,-69.44,0,1014.78,37.679,54.97346,-1.617654,335.48,NaN,,2.38,25.806452,185.5,Dec-21,268025,2016-02-03 15:33:10:706
2.7375,7.4916,-2.0046,5.98,7.66,-1.3,-2.56,0.34,1.77,-1.4839,0.4155,-0.1811,0,-14.69,-16.75,18.19,61.72,-52.41,-111.89,0,1014.8,38.096,54.97346,-1.617654,335.48,NaN,,2.38,25.806452,185.5,Dec-21,268525,2016-02-03 15:33:11:206
